T [ms],AccX [mg],AccY [mg],AccZ [mg],GyroX [mdps],GyroY [mdps],GyroZ [mdps]
9807, -100, -827, 665, 22330, -293860, 145740
9827, 120, -839, 566, -32060, -328160, 131320
9847, 79, -873, 477, -88480, -154350, 77980
9867, -60, -913, 310, -201530, 61320, 29890
9887, -185, -990, 171, -281400, 127260, 61880
9907, -238, -1023, 158, -210000, 45640, 110670
9927, -212, -912, 259, -6860, -114940, 113750
9947, -116, -845, 350, 138530, -276430, 87780
9967, -77, -882, 406, 112280, -369250, 106680
9987, -251, -1071, 341, -49560, -368480, 221060
10007, -550, -1292, 312, -191310, -350070, 370160
10027, -682, -1296, 339, -172760, -438200, 400890
10047, -517, -1039, 264, -89600, -637700, 247800
10067, -272, -935, 129, -109760, -811300, 56350
10087, -244, -1006, 53, -192360, -861280, 32900
10107, -364, -1036, 105, -177660, -832370, 180740
10127, -410, -939, 211, -56210, -828870, 302680
10147, -370, -790, 263, 8750, -859110, 294630
10167, -323, -817, 151, -88900, -867440, 231560
10187, -369, -978, 61, -255500, -835800, 213500
10207, -437, -1067, 76, -294350, -803460, 248990
10227, -401, -993, 132, -182280, -814450, 252140
10247, -259, -860, 168, -71680, -843360, 184870
10267, -173, -865, 132, -84070, -816550, 122640
10287, -249, -968, 118, -177100, -710850, 146230
10307, -323, -1018, 147, -210980, -593250, 211890
10327, -295, -962, 183, -153160, -532560, 210140
10347, -174, -892, 175, -88200, -514920, 122080
10367, -79, -915, 133, -88620, -474670, 27370
10387, -98, -989, 119, -121800, -374150, 7980
10407, -186, -1027, 160, -109340, -239190, 59010
10427, -236, -1012, 223, -40110, -122290, 100450
10447, -214, -986, 238, 29960, -49280, 68180
10467, -142, -975, 197, 43540, 3080, -22120
10487, -104, -976, 134, 15050, 70840, -104090
10507, -144, -968, 120, 3640, 170240, -122920
10527, -223, -949, 153, 41650, 283150, -87780
10547, -277, -939, 188, 105350, 378280, -53900
10567, -267, -916, 197, 145530, 439460, -66710
10587, -216, -896, 175, 150500, 471590, -125160
10607, -181, -889, 148, 116060, 546700, -195580
10627, -222, -911, 138, 106750, 612850, -153160
10647, -296, -961, 148, 104020, 672280, -97930
10667, -357, -1007, 177, 116130, 693910, -76720
10687, -362, -1020, 218, 140560, 671720, -99680
10707, -318, -995, 263, 155400, 629440, -140280
10727, -276, -990, 271, 129150, 598150, -165830
10747, -270, -1009, 247, 68950, 586250, -164710
10767, -268, -1025, 217, 22890, 574630, -146580
10787, -268, -1006, 227, 26740, 542290, -124740
10807, -348, -928, 357, 61530, 488460, -106190
10827, -298, -873, 269, 76510, 256550, -54950
10847, -323, -953, 346, -2870, -259140, 145250
10867, -307, -1032, 238, -121380, -265090, 156170
10887, 116, -1493, -52, -176960, -334250, 96670
10907, 4, -1080, 139, -67270, -331730, 40740
10927, -67, -828, 224, 44240, -228900, -33110
10947, -102, -766, 259, 17570, -192220, -13930
10967, -137, -862, 194, -42910, -169260, 48160
10987, -130, -994, 160, -84070, -169400, 89950
11007, -198, -1025, 187, -53690, -196840, 75600
11027, -333, -1048, 342, 6650, -237370, 54670
11047, -206, -974, 292, 14840, -252630, 55790
11067, -214, -1028, 241, -51660, -258860, 39830
11087, -229, -1040, 225, -109620, -251440, 40530
11107, -213, -1004, 219, -94640, -257530, 42070
11127, -129, -926, 229, -48930, -273210, 31920
11147, -197, -878, 322, 16100, -197890, 21840
11167, -200, -919, 278, 48160, -2240, -1960
11187, -134, -991, 169, -39620, 49490, -50540
11207, -172, -984, 181, -80640, 65590, -88550
11227, -206, -911, 139, -10010, 117250, -79100
11247, -188, -1125, 196, -5180, 10710, 4970
11267, -249, -1055, 305, -5460, 16240, 41720
11287, -157, -944, 230, -2730, 35000, 14980
11307, -114, -953, 168, -13580, -8260, -22190
11327, -77, -965, 154, -23660, -24850, -38850
11347, -90, -978, 209, -4690, -19320, -32970
11367, -166, -1002, 204, 9730, -980, -7700
11387, -230, -1036, 242, 8540, 16590, 26250
11407, -205, -1026, 249, 14560, 19600, 35210
11427, -147, -1000, 238, 26040, -6440, 4550
11447, -126, -983, 224, 19460, -27860, -31010
11467, -158, -979, 216, -6090, -18620, -31710
11487, -190, -964, 210, -20020, 17080, 33670
11507, -119, -1002, 178, -18830, -3500, 10570
11527, -71, -951, 223, -7140, -12670, -41020
11547, -35, -893, 253, 5390, 8890, -55440
11567, -71, -890, 253, -7910, 22190, -12040
11587, -150, -985, 195, -26530, 31220, 27860
11607, -187, -1025, 150, -24010, 18620, 35140
11627, -160, -1012, 171, 6790, -6160, 14350
11647, -141, -1001, 250, 21840, -13510, -3920
11667, -177, -977, 262, 5390, 2590, 2520
11687, -167, -999, 203, -10010, 1330, 12040
11707, -137, -1007, 164, -14000, -10990, -2940
11727, -112, -1003, 167, -8750, -14630, -21560
11747, -128, -979, 197, 15890, 2730, -11340
11767, -173, -983, 231, 34160, 27020, 15960
11787, -210, -994, 255, 23730, 40180, 26950
11807, -206, -982, 249, 11900, 35840, 17010
11827, -172, -982, 225, 1120, 20090, -12950
11847, -143, -961, 220, -10500, 6510, -34580
11867, -147, -955, 227, -2660, 10080, -21840
11887, -189, -964, 254, 13790, 24570, 14350
11907, -217, -981, 264, 16310, 33250, 36470
11927, -212, -984, 260, 5040, 23800, 22330
11947, -168, -974, 235, -4200, 3150, -9100
11967, -146, -959, 230, -4690, -11130, -25060
11987, -160, -949, 239, 4620, -8400, -7490
12007, -191, -962, 252, 10220, 2940, 23520
12027, -211, -974, 260, 9240, 6160, 37450
12047, -195, -979, 248, 2450, -5320, 24150
12067, -163, -964, 240, -1820, -23660, 0
12087, -155, -958, 233, 490, -33880, -8400
12107, -175, -962, 243, 280, -29540, 6720
12127, -201, -979, 250, 1960, -20300, 29330
12147, -206, -984, 254, 1120, -20160, 34930
12167, -182, -975, 248, 1680, -32200, 19250
12187, -164, -974, 240, 770, -45570, -910
12207, -170, -975, 241, -3360, -47530, -4760
12227, -189, -980, 244, -3850, -38290, 10220
12247, -201, -972, 253, -3220, -29820, 23310
12267, -186, -964, 244, 70, -31850, 18060
12287, -164, -958, 236, -3220, -40320, -2030
12307, -156, -968, 230, -8470, -42840, -14630
12327, -175, -978, 238, -9730, -34020, -7560
12347, -199, -988, 252, -5250, -19250, 10710
12367, -207, -991, 255, 560, -9380, 20300
12387, -185, -979, 250, -6580, -13300, -10990
12407, -164, -965, 231, -12600, -11690, -22820
12427, -163, -959, 228, -11760, -1190, -16520
12447, -175, -956, 233, -3920, 11060, -3780
12467, -183, -953, 244, 3360, 18130, 420
12487, -183, -960, 246, 1820, 19880, -7630
12507, -173, -978, 241, -5600, 21140, -18480
12527, -173, -998, 236, -8400, 26250, -19810
12547, -188, -1012, 248, -1610, 34650, -10290
12567, -205, -1009, 263, 7560, 41440, -980
12587, -210, -993, 262, 6860, 41930, -5320
12607, -188, -964, 248, -3290, 35980, -23520
12627, -156, -940, 224, -12390, 29610, -40320
12647, -142, -926, 217, -10290, 29540, -39900
12667, -155, -927, 227, 910, 37100, -21070
12687, -177, -941, 243, 10360, 45990, 1470
12707, -195, -967, 253, 10710, 48020, 9800
12727, -195, -1000, 254, 3850, 41230, 1610
12747, -186, -1019, 253, 140, 31150, -9310
12767, -189, -1021, 258, 2870, 25760, -8680
12787, -202, -1010, 266, 6300, 26040, 2870
12807, -208, -995, 263, 3850, 24080, 8890
12827, -195, -974, 251, -4550, 14840, 1190
12847, -165, -944, 232, -9730, 560, -12810
12867, -150, -929, 228, -7490, -10640, -18060
12887, -156, -925, 233, -1190, -12880, -6300
12907, -174, -942, 242, 3640, -9870, 13230
12927, -194, -966, 250, 2870, -8610, 26880
12947, -196, -984, 251, -490, -15120, 25550
12967, -186, -991, 250, -2520, -27510, 13860
12987, -178, -987, 250, -2660, -37450, 5950
13007, -184, -985, 248, -2520, -40320, 8610
13027, -191, -981, 249, -4550, -37870, 17710
13047, -190, -972, 244, -6580, -37660, 21420
13067, -177, -961, 241, -6930, -42630, 15680
13087, -163, -952, 236, -5880, -48370, 7420
13107, -168, -963, 236, -5460, -48790, 6020
13127, -183, -976, 241, -5810, -42140, 14630
13147, -192, -983, 247, -4060, -34720, 23660
13167, -194, -987, 252, -420, -32550, 22960
13187, -183, -985, 246, -70, -33950, 13580
13207, -176, -983, 240, -4060, -34230, 2730
13227, -177, -972, 238, -6930, -29610, -280
13247, -181, -958, 239, -5390, -21910, 2870
13267, -178, -947, 238, -1820, -15750, 3710
13287, -166, -943, 232, -2940, -10080, -9660
13307, -163, -958, 230, -4620, -3080, -9940
13327, -172, -973, 235, -1680, 7420, -2240
13347, -189, -987, 248, 4270, 17220, 5600
13367, -199, -997, 255, 5600, 22610, 4900
13387, -196, -995, 254, 1400, 22260, -7420
13407, -181, -987, 243, -4060, 20720, -21350
13427, -171, -977, 237, -5250, 22820, -26180
13447, -174, -967, 239, -70, 29050, -20090
13467, -182, -957, 243, 4480, 35560, -12250
13487, -182, -952, 245, 4130, 38360, -11550
13507, -177, -956, 239, -420, 36890, -18480
13527, -168, -964, 234, -2450, 34720, -24150
13547, -170, -975, 240, 980, 35910, -20160
13567, -188, -992, 251, 5460, 40740, -8120
13587, -204, -1001, 262, 6090, 44170, 1330
13607, -205, -1001, 261, 2450, 40460, -2450
13627, -189, -985, 248, -2730, 30660, -15750
13647, -170, -962, 239, -5110, 20860, -26250
13667, -162, -946, 235, -3010, 16590, -24710
13687, -170, -941, 236, -560, 18130, -12040
13707, -180, -947, 243, 700, 19460, 70
13727, -184, -958, 243, 0, 16030, 3570
13747, -180, -973, 247, -980, 8260, 140
13767, -182, -987, 247, -1190, 980, -1960
13787, -187, -988, 253, 140, -2450, 3010
13807, -196, -984, 255, 70, -3710, 10500
13827, -195, -978, 250, -3990, -7350, 11970
13847, -182, -965, 239, -8400, -15960, 4200
13867, -165, -953, 234, -9520, -25340, -3850
13887, -161, -950, 235, -6230, -29540, -2240
13907, -174, -960, 243, -2100, -27370, 9450
13927, -191, -979, 250, -630, -22680, 23030
13947, -198, -992, 251, -2240, -21700, 27370
13967, -191, -995, 248, -3710, -26670, 20650
13987, -181, -990, 247, -4130, -33670, 10010
14007, -177, -979, 244, -3220, -36540, 5600
14027, -183, -968, 243, -2730, -33530, 9380
14047, -186, -959, 239, -3850, -28700, 14490
14067, -177, -951, 235, -5110, -27510, 12460
14087, -165, -951, 230, -4690, -29820, 4270
14107, -165, -956, 235, -2730, -29960, -280
14127, -177, -963, 240, -420, -24010, 4410
14147, -192, -981, 245, 1190, -14560, 13720
14167, -198, -995, 250, 280, -7420, 17290
14187, -189, -995, 247, 280, -8890, -1890
14207, -175, -980, 244, 1120, -8400, -9240
14227, -174, -975, 240, 140, -1750, -7350
14247, -183, -968, 240, -1750, 6930, -2310
14267, -184, -958, 237, -910, 11620, -2310
14287, -179, -949, 236, 630, 11340, -9660
14307, -167, -946, 236, 1470, 11130, -16870
14327, -161, -952, 234, 630, 15470, -16450
14347, -174, -972, 240, 210, 24360, -7420
14367, -192, -994, 247, 1540, 32830, 2800
14387, -202, -1004, 255, 4270, 34440, 3220
14407, -199, -1006, 258, 5460, 30310, -5880
14427, -187, -1001, 251, 1750, 26040, -16240
14447, -183, -991, 246, -2310, 25550, -19670
14467, -182, -974, 242, -2660, 27440, -16030
14487, -183, -959, 241, 770, 27510, -12740
14507, -179, -949, 240, 3010, 24780, -13650
14527, -169, -942, 239, 2590, 20720, -17220
14547, -167, -949, 236, 770, 18550, -17710
14567, -174, -968, 241, -630, 19670, -11480
14587, -187, -981, 247, 1540, 21280, -2450
14607, -196, -990, 256, 4270, 20370, 3290
14627, -195, -992, 257, 3780, 15330, 1050
14647, -188, -985, 249, -1120, 8260, -6580
14667, -177, -967, 241, -5880, 2170, -12180
14687, -172, -952, 237, -7280, -1330, -11830
14707, -172, -946, 235, -6020, -2870, -6860
14727, -173, -946, 238, -2940, -4760, -1750
14747, -174, -954, 241, -770, -7140, 1680
14767, -178, -972, 244, -420, -8890, 4830
14787, -187, -990, 250, -1470, -9660, 8330
14807, -194, -1001, 252, -2520, -9870, 12250
14827, -198, -993, 255, -2170, -11900, 13090
14847, -188, -973, 249, -2030, -16380, 9100
14867, -173, -954, 239, -5250, -21490, 1610
14887, -165, -945, 227, -10290, -24290, -3430
14907, -163, -945, 228, -11690, -23660, -1750
14927, -172, -953, 235, -5880, -21140, 5600
14947, -180, -970, 247, 1470, -17570, 14770
14967, -192, -993, 254, 4480, -14910, 19460
14987, -196, -1015, 254, 1470, -13300, 18900
15007, -198, -1022, 252, -3570, -13020, 14770
15027, -199, -1013, 253, -3780, -13930, 10500
15047, -189, -985, 251, -140, -15400, 7000
15067, -180, -961, 244, 2940, -16870, 2450
15087, -171, -944, 232, -5670, -15120, -6650
15107, -162, -933, 225, -5670, -12390, -6580
15127, -160, -928, 226, -350, -8400, -1960
15147, -166, -937, 232, 5460, -3500, 4480
15167, -178, -957, 241, 5950, 1610, 8610
15187, -189, -980, 247, 2170, 5530, 9030
15207, -191, -996, 249, -1120, 6440, 4690
15227, -187, -1000, 250, -350, 5250, -1260
15247, -191, -1002, 249, -630, 6090, -3640
15267, -188, -982, 251, -770, 7770, -4200
15287, -184, -968, 244, -2310, 8400, -6720
15307, -176, -956, 240, -5320, 8260, -10640
15327, -171, -962, 230, -6090, 8750, -11970
15347, -172, -962, 237, -2170, 10430, -8610
15367, -180, -965, 243, 5250, 12600, -2800
15387, -189, -971, 252, 4480, 14910, 490
15407, -192, -982, 247, -770, 14910, -2030
15427, -186, -985, 244, -6790, 12250, -8540
15447, -180, -978, 242, -5040, 8610, -12670
15467, -178, -975, 245, -210, 7280, -10990
15487, -183, -976, 252, 1820, 8470, -5880
15507, -188, -982, 249, -490, 9590, -2730
15527, -188, -984, 245, -5390, 8890, -3150
15547, -180, -973, 242, -5180, 4900, -6720
15567, -175, -964, 242, -1820, 420, -9450
15587, -174, -960, 243, 280, -1120, -7770
15607, -179, -965, 241, -1540, 630, -2590
15627, -185, -974, 242, -5110, 2450, 2100
15647, -185, -980, 244, -4900, 1050, 3010
15667, -182, -976, 246, -910, -2660, 1680
15687, -183, -977, 248, 2380, -5670, 910
15707, -185, -976, 247, 0, -5670, 2380
15727, -184, -971, 243, -4480, -5320, 3220
15747, -181, -966, 240, -5810, -7210, 1400
15767, -174, -955, 238, -3500, -10290, -910
15787, -170, -950, 240, 280, -12950, -2240
15807, -173, -957, 240, 1330, -12250, 210
15827, -180, -971, 240, -1750, -8750, 4970
15847, -189, -986, 245, -4340, -5600, 9100
15867, -189, -989, 250, -1960, -5180, 10430
15887, -189, -991, 253, 2310, -7210, 8260
15907, -187, -986, 248, 1820, -7980, 5740
15927, -186, -983, 242, -3570, -7210, 3150
15947, -183, -976, 238, -7070, -6160, 1540
15967, -179, -964, 240, -5320, -6090, 840
15987, -176, -958, 240, 3080, -6720, -70
16007, -176, -963, 241, 1820, -4690, 560
16027, -180, -975, 242, -910, -1120, 3010
16047, -186, -980, 245, -280, 1610, 5530
16067, -187, -976, 245, 3080, 1330, 4270
16087, -186, -968, 247, 3360, -420, -770
16107, -177, -960, 243, -700, -1400, -6440
16127, -170, -958, 236, -5040, 140, -7910
16147, -171, -960, 233, -4970, 3710, -3710
16167, -182, -967, 239, -490, 7070, 2450
16187, -186, -971, 245, 4830, 7980, 5250
16207, -189, -970, 250, 5040, 6510, 1750
16227, -183, -970, 244, -910, 4900, -4550
16247, -177, -967, 238, -6230, 3570, -10080
16267, -175, -963, 237, -5670, 3780, -9730
16287, -175, -961, 240, -630, 5180, -5530
16307, -183, -966, 243, 2380, 7350, -630
16327, -184, -977, 248, -280, 8820, 840
16347, -190, -992, 247, -4130, 7980, -2030
16367, -185, -995, 248, -4480, 6020, -4900
16387, -185, -988, 251, -700, 4200, -5950
16407, -188, -981, 251, 770, 4340, -4340
16427, -186, -974, 246, -2940, 5180, -4060
16447, -182, -970, 240, -7490, 4340, -6720
16467, -175, -962, 237, -7140, 2030, -9380
16487, -173, -957, 240, -1750, -210, -9380
16507, -174, -961, 243, 2520, 420, -5040
16527, -182, -972, 245, 1750, 3220, 350
16547, -189, -981, 246, -1540, 5530, 3920
16567, -188, -981, 245, -2660, 4410, 2520
16587, -183, -974, 244, -700, 840, -1260
16607, -175, -961, 243, 1750, -2380, -4130
16627, -175, -954, 240, 1120, -3290, -4900
16647, -177, -954, 236, -2940, -1330, -2240
16667, -175, -955, 236, -5460, -70, -140
16687, -175, -961, 238, -3010, -700, 1120
16707, -178, -973, 244, 2590, -2030, 2380
16727, -186, -990, 249, 5670, -1750, 5110
16747, -196, -1006, 254, 3360, 1050, 9520
16767, -200, -1008, 254, -560, 2730, 11270
16787, -192, -991, 252, -1190, 70, 7210
16807, -181, -972, 244, -140, -5040, -350
16827, -171, -953, 239, -1260, -8330, -5600
16847, -170, -948, 234, -3920, -7770, -5530
16867, -174, -953, 232, -5320, -4900, -980
16887, -180, -963, 239, 3290, -2520, 7280
16907, -185, -969, 249, 7630, -3570, 7070
16927, -185, -975, 251, 5250, -3920, 4690
16947, -187, -980, 247, -1750, -3290, 1680
16967, -185, -982, 242, -5880, -3290, -1400
16987, -184, -978, 241, -3640, -4130, -3010
17007, -177, -960, 242, 840, -5110, -3990
17027, -177, -958, 242, 700, -3920, -3710
17047, -177, -964, 242, -4060, -770, -2100
17067, -181, -976, 238, -6370, 1610, -1050
17087, -187, -988, 242, -2940, 2590, 490
17107, -187, -988, 251, 3780, 2240, 1050
17127, -190, -983, 252, 4900, 2870, 770
17147, -187, -975, 248, -1190, 3920, -2030
17167, -182, -968, 237, -8050, 3010, -8330
17187, -173, -956, 233, -8260, 1400, -12390
17207, -165, -948, 236, -2030, 1050, -11480
17227, -173, -953, 242, 2520, 4760, -4410
17247, -183, -968, 244, 980, 10010, 2520
17267, -192, -986, 247, -3500, 12950, 4270
17287, -191, -992, 247, -4620, 11620, 770
17307, -185, -988, 249, -910, 7070, -6020
17327, -184, -991, 249, 1260, 4830, -9170
17347, -187, -985, 249, -770, 6650, -7560
17367, -187, -979, 245, -4200, 9590, -4550
17387, -186, -972, 242, -5810, 9660, -5040
17407, -178, -969, 239, -3430, 6300, -9240
17427, -171, -969, 240, 280, 3290, -11830
17447, -179, -979, 247, 2520, 4550, -7910
17467, -192, -991, 250, 1190, 9450, 1120
17487, -197, -990, 252, -560, 11830, 5740
17507, -188, -980, 249, -280, 8330, 2030
17527, -177, -966, 242, -70, 1540, -6860
17547, -170, -952, 238, -1050, -2520, -11130
17567, -168, -941, 233, -2660, -1750, -7350
17587, -177, -944, 235, -3080, 1330, 770
17607, -178, -948, 236, -2310, 2730, 7140
17627, -176, -953, 241, 210, -350, 6930
17647, -175, -961, 244, 2240, -4270, 4830
17667, -178, -971, 244, 1190, -5460, 6230
17687, -191, -986, 248, -1750, -4060, 10710
17707, -191, -986, 251, -3360, -3080, 15470
17727, -192, -977, 250, -1890, -6230, 14280
17747, -179, -965, 246, -700, -11620, 9170
17767, -175, -959, 239, -2800, -16240, 3360
17787, -173, -957, 235, -8540, -15960, 5810
17807, -176, -962, 238, -4690, -15050, 10360
17827, -184, -969, 245, 280, -14980, 13580
17847, -187, -976, 249, 1610, -16030, 12250
17867, -191, -985, 251, -2590, -16170, 9030
17887, -187, -984, 246, -7630, -16380, 4550
17907, -185, -979, 240, -7840, -17080, 700
17927, -182, -969, 242, -4760, -16870, -770
17947, -176, -959, 241, -1820, -15750, -1610
17967, -178, -964, 240, -3220, -12110, -700
17987, -181, -971, 237, -4830, -8400, -840
18007, -184, -983, 241, -2590, -5950, -1750
18027, -186, -987, 246, 1680, -3780, -2520
18047, -189, -987, 249, 4410, -1470, -4270
18067, -188, -980, 248, 2590, 1190, -7560
18087, -182, -972, 241, -1120, 3290, -12880
18107, -194, -955, 244, -3080, 5600, -16870
18127, -268, -922, 268, -1050, 4550, -8190
18147, -162, -922, 263, -13860, -34020, 48090
18167, -200, -1056, 194, -42630, -63700, 51380
18187, -163, -1045, 72, -97580, 13650, 9310
18207, -167, -962, 56, -48790, 19180, -22050
18227, -146, -991, 155, 31990, 26600, -48090
18247, -186, -1042, 281, 70280, 38500, -23310
18267, -248, -966, 255, 44030, 44660, -140
18287, -188, -921, 262, 27230, 16380, -6020
18307, -114, -927, 223, 13370, -14560, -61810
18327, -118, -958, 215, -15680, -10220, -70840
18347, -72, -933, 312, -25830, 25200, -19250
18367, -237, -1114, 430, 6650, 120400, 29190
18387, -164, -1159, 25, -48930, 80080, -5460
18407, -201, -997, 26, -40460, -70980, -3990
18427, -152, -994, 197, 1120, -38500, -1890
18447, -172, -984, 219, 30800, 9240, -10710
18467, -159, -911, 259, 41020, 15890, -11410
18487, -184, -920, 268, 42910, 14630, -4270
18507, -166, -963, 220, 10220, 26950, 3710
18527, -188, -987, 230, -40320, 31710, -8750
18547, -168, -1013, 206, -32060, 29120, -7210
18567, -191, -965, 286, -560, 19040, -3150
18587, -202, -990, 271, 43260, 14070, 13160
18607, -213, -989, 277, 25550, 19040, 20930
18627, -202, -1014, 225, -13020, 20580, 10850
18647, -169, -977, 219, -36120, 12390, -5670
18667, -157, -942, 236, -16170, -5320, -17850
18687, -162, -925, 253, 27230, -9940, 13090
18707, -191, -950, 260, 8470, -70, 28560
18727, -205, -999, 234, -21280, 0, 24570
18747, -198, -996, 241, -11970, -15890, 9450
18767, -175, -991, 232, 12040, -33180, -560
18787, -170, -959, 266, 27510, -37380, 5950
18807, -187, -977, 253, 13370, -27230, 21210
18827, -207, -990, 249, -14420, -18410, 27440
18847, -201, -992, 231, -17290, -25200, 17220
18867, -178, -964, 232, -1960, -41230, 140
18887, -155, -936, 244, 19110, -50050, -4760
18907, -165, -942, 243, 13230, -41930, 5670
18927, -189, -965, 242, -4480, -26110, 21630
18947, -203, -994, 236, -15120, -19600, 23800
18967, -197, -984, 244, -6020, -26880, 11480
18987, -172, -971, 245, 11130, -37240, -4130
19007, -170, -968, 251, 11130, -34930, -7140
19027, -185, -985, 243, -2380, -19880, 3500
19047, -201, -992, 241, -15820, -6370, 10780
19067, -195, -978, 238, -11620, -4690, 6090
19087, -173, -950, 240, 1260, -12390, -10290
19107, -157, -934, 240, 7210, -14070, -20510
19127, -644, -967, -356, -13020, 4410, -15610
19147, 129, -891, 140, -349020, 260680, 23380
19167, -68, -779, 801, -36120, 99960, 14350
19187, -281, -925, 318, 293300, -32690, -1400
19207, -225, -1264, 8, -80640, 114380, -4900
19227, -287, -1246, -32, -160160, 116480, -18690
19247, -172, -793, 335, 83860, -19320, -38430
19267, -5, -703, 371, 362810, -126840, -70630
