T [ms],AccX [mg],AccY [mg],AccZ [mg],GyroX [mdps],GyroY [mdps],GyroZ [mdps]
34304, -342, -926, 426, 7490, 1120, 30240
34324, -376, -893, 416, 20020, 8470, 38290
34344, -355, -833, 439, 13790, -3850, 36750
34364, -455, -982, 388, 1190, -10780, 29190
34384, -306, -897, 464, 37940, 10710, 140
34404, -284, -894, 572, 39760, 33040, -630
34424, -683, -1505, 267, -96180, 51100, 109830
34444, -507, -1117, 284, -50610, -67620, 23590
34464, -351, -783, 276, 47320, -245770, -93310
34484, -185, -536, 211, 28280, -368970, -192360
34504, -23, -425, 134, -48510, -446460, -238000
34524, 98, -395, 80, -119630, -466340, -186830
34544, 123, -445, 61, -151900, -434420, -34930
34564, -17, -546, 122, -126280, -373310, 184940
34584, -191, -660, 220, -58590, -334810, 381710
34604, -336, -806, 344, 4690, -360850, 474530
34624, -372, -958, 424, 5180, -432670, 461440
34644, -591, -1220, 490, -99750, -468510, 422100
34664, -1014, -1663, 385, -321160, -409080, 427140
34684, -1204, -1901, 217, -516180, -391370, 401380
34704, -848, -1303, 175, -400610, -619080, 276080
34724, -476, -870, 112, -153580, -919730, 95200
34744, -328, -783, -10, -164640, -1002820, -4060
34764, -350, -813, -41, -242410, -958510, 67620
34784, -378, -793, 12, -171990, -933940, 200970
34804, -380, -712, 102, -28490, -954730, 267260
34824, -340, -617, 181, 37660, -977690, 256130
34844, -315, -645, 177, -38710, -963900, 224070
34864, -377, -833, 129, -217000, -896350, 232820
34884, -575, -1092, 142, -370510, -801500, 304080
34904, -764, -1209, 246, -385770, -749630, 391300
34924, -735, -1103, 274, -302960, -783930, 385490
34944, -530, -1036, 103, -301700, -844900, 242480
34964, -461, -1049, 23, -415520, -840280, 109130
34984, -454, -977, 60, -427280, -797300, 126630
35004, -431, -857, 95, -290710, -782320, 201670
35024, -361, -740, 93, -165060, -785470, 209230
35044, -218, -643, 66, -125370, -780570, 145180
35064, -113, -637, 44, -143570, -747740, 77910
35084, -130, -713, 67, -173600, -670250, 73010
35104, -240, -819, 130, -173110, -558810, 139020
35124, -319, -897, 198, -131320, -456470, 207340
35144, -294, -945, 228, -81130, -397460, 196070
35164, -242, -1015, 247, -106120, -306460, 31780
35184, -307, -1143, 243, -165550, -195860, 23940
35204, -417, -1291, 203, -201600, -77700, 43960
35224, -440, -1293, 209, -139790, -28000, 29820
35244, -383, -1127, 267, -12880, -32410, -19040
35264, -326, -1010, 260, 18970, 980, -86660
35284, -242, -958, 180, -42630, 81060, -159600
35304, -185, -920, 138, -72870, 170100, -198030
35324, -214, -933, 123, -44660, 265370, -176960
35344, -300, -989, 122, 6790, 358120, -132090
35364, -360, -1021, 157, 85820, 415730, -115920
35384, -425, -1058, 231, 167020, 444360, -134960
35404, -488, -1156, 230, 182910, 481320, -178920
35424, -470, -1192, 190, 161700, 522060, -245630
35444, -428, -1122, 181, 188720, 553000, -289030
35464, -455, -1070, 156, 231350, 605780, -269220
35484, -471, -998, 125, 245840, 673260, -231700
35504, -462, -890, 129, 277550, 707630, -222040
35524, -441, -833, 136, 314230, 713790, -236110
35544, -388, -790, 125, 320600, 715470, -264670
35564, -356, -761, 132, 307650, 728700, -281820
35584, -384, -797, 130, 274260, 766990, -263060
35604, -438, -876, 103, 216230, 820330, -229740
35624, -450, -910, 101, 181300, 852180, -215740
35644, -459, -914, 130, 205240, 848330, -213220
35664, -485, -945, 155, 246540, 830200, -198730
35684, -508, -966, 181, 265580, 807450, -185850
35704, -492, -945, 215, 277410, 769300, -194180
35724, -417, -906, 219, 280420, 716660, -224350
35744, -338, -876, 189, 255430, 669130, -257110
35764, -305, -850, 174, 222180, 642460, -254100
35784, -325, -859, 184, 203350, 635180, -197820
35804, -347, -893, 200, 191240, 628110, -121940
35824, -353, -921, 229, 183470, 597730, -68600
35844, -365, -963, 265, 185570, 541660, -39970
35864, -359, -993, 301, 186200, 473830, -23870
35884, -328, -1006, 325, 171150, 402430, -21420
35904, -322, -1027, 328, 134400, 339290, -20370
35924, -341, -1059, 308, 74060, 297430, -980
35944, -335, -1055, 298, 16450, 257950, 29260
35964, -319, -1012, 310, 1960, 191240, 52290
35984, -312, -984, 321, 18410, 105000, 68810
36004, -306, -979, 318, 17430, 25060, 83230
36024, -306, -988, 304, -15330, -42070, 94360
36044, -330, -1016, 293, -57050, -103320, 108500
36064, -376, -1038, 290, -88410, -232960, 164010
36084, -378, -1015, 287, -73990, -319970, 171080
36104, -361, -971, 279, -71750, -404110, 164010
36124, -364, -941, 259, -99470, -464030, 166810
36144, -384, -928, 231, -136780, -510930, 180250
36164, -401, -918, 201, -154070, -566790, 189070
36184, -411, -890, 186, -148470, -632730, 188790
36204, -409, -849, 180, -143500, -695800, 180460
36224, -389, -814, 160, -162680, -743050, 170590
36244, -380, -819, 134, -199920, -768740, 176400
36264, -398, -845, 130, -224140, -778960, 208040
36284, -437, -862, 150, -223930, -787080, 247380
36304, -455, -881, 155, -224140, -797300, 268870
36324, -459, -910, 144, -240100, -804090, 270970
36344, -457, -945, 135, -254170, -804020, 270900
36364, -467, -979, 141, -248080, -798000, 279580
36384, -492, -1013, 151, -223510, -789460, 290500
36404, -491, -1016, 159, -191520, -785260, 282590
36424, -453, -1004, 148, -169120, -782110, 246120
36444, -422, -1008, 147, -164290, -764470, 203770
36464, -423, -1022, 156, -161420, -728140, 179620
36484, -428, -1033, 167, -150640, -685440, 161910
36504, -406, -1034, 170, -140490, -645750, 127680
36524, -359, -1021, 173, -135310, -606690, 79240
36544, -325, -1025, 182, -134540, -555660, 39760
36564, -328, -1053, 191, -140070, -483770, 24150
36584, -339, -1080, 197, -141890, -403060, 21630
36604, -323, -1061, 209, -125370, -333760, 10150
36624, -291, -1022, 209, -99890, -274400, -15960
36644, -266, -1001, 194, -88970, -207830, -45850
36664, -241, -986, 176, -86870, -131600, -70000
36684, -233, -968, 168, -70140, -54600, -84350
36704, -243, -951, 172, -36120, 21840, -86940
36724, -255, -937, 167, 1890, 97720, -86380
36744, -256, -916, 169, 35490, 168140, -96110
36764, -262, -911, 162, 63280, 232610, -116550
36784, -271, -918, 148, 81760, 298060, -137690
36804, -287, -922, 141, 97720, 365750, -150710
36824, -313, -918, 145, 122780, 431620, -152390
36844, -350, -923, 149, 151620, 495040, -145180
36864, -382, -931, 147, 168490, 554540, -140980
36884, -392, -921, 152, 177800, 601790, -150850
36904, -396, -912, 154, 189000, 633990, -172270
36924, -401, -915, 155, 195230, 660590, -194320
36944, -418, -924, 151, 189280, 690340, -209230
36964, -443, -943, 152, 169120, 745220, -225680
36984, -453, -957, 153, 174720, 752290, -240100
37004, -457, -972, 163, 194600, 744590, -255010
37024, -467, -998, 183, 218750, 730870, -260820
37044, -492, -1031, 206, 234710, 716380, -259700
37064, -494, -1050, 217, 241290, 696430, -263270
37084, -462, -1033, 215, 247730, 667590, -269780
37104, -422, -1001, 210, 256970, 636090, -263060
37124, -399, -968, 211, 263900, 607880, -235690
37144, -386, -953, 222, 264320, 581700, -196630
37164, -376, -951, 234, 255220, 550970, -160860
37184, -361, -958, 243, 238490, 512050, -133910
37204, -345, -961, 254, 221690, 466480, -109410
37224, -329, -965, 270, 205800, 417690, -82040
37244, -328, -977, 286, 184030, 369390, -52290
37264, -333, -995, 298, 154420, 321090, -24220
37284, -337, -1012, 306, 122920, 267470, -2590
37304, -325, -998, 310, 97020, 203490, 9030
37324, -301, -965, 303, 75320, 131600, 13020
37344, -282, -929, 291, 50190, 61180, 18270
37364, -272, -901, 282, 22750, -4690, 29540
37384, -272, -885, 273, -3710, -68670, 44380
37404, -276, -874, 260, -26390, -134050, 59220
37424, -284, -861, 252, -42420, -202860, 71470
37444, -284, -850, 247, -54320, -272930, 79800
37464, -294, -852, 243, -71470, -337820, 87710
37484, -313, -867, 236, -97930, -391930, 100870
37504, -333, -882, 229, -126980, -438340, 118020
37524, -351, -895, 222, -151620, -482440, 133840
37544, -369, -910, 221, -172970, -522900, 148050
37564, -381, -922, 212, -193550, -557340, 162750
37584, -386, -934, 202, -213710, -585760, 177590
37604, -397, -952, 192, -230440, -607320, 195860
37624, -411, -962, 190, -236390, -622860, 220570
37644, -420, -975, 188, -229880, -635530, 245070
37664, -425, -997, 184, -219870, -646100, 261030
37684, -428, -1026, 188, -208950, -652820, 269570
37704, -441, -1057, 199, -191800, -654360, 275940
37724, -455, -1086, 207, -169960, -650370, 279300
37744, -463, -1099, 207, -150220, -642390, 272720
37764, -443, -1091, 205, -133070, -633990, 250180
37784, -416, -1074, 199, -118230, -624960, 213360
37804, -399, -1067, 193, -109200, -607670, 174720
37824, -378, -1054, 186, -102830, -579460, 144270
37844, -347, -1025, 190, -91280, -545650, 117810
37864, -318, -993, 189, -67130, -460180, 66710
37884, -297, -969, 190, -66290, -404180, 44660
37904, -276, -960, 181, -68040, -344050, 22750
37924, -254, -954, 174, -62090, -283010, 4480
37944, -244, -948, 176, -43470, -221060, -5740
37964, -235, -933, 180, -19040, -157010, -11760
37984, -226, -915, 182, -1400, -90650, -21490
38004, -219, -908, 177, 8470, -21700, -33740
38024, -223, -907, 174, 17920, 49840, -42070
38044, -236, -910, 171, 30520, 120470, -47320
38064, -240, -903, 167, 48720, 184310, -55580
38084, -243, -893, 170, 71190, 242130, -64820
38104, -265, -899, 176, 88130, 300160, -68530
38124, -292, -916, 181, 91700, 359030, -71960
38144, -310, -933, 180, 88830, 410970, -83580
38164, -322, -945, 182, 89110, 452830, -100590
38184, -344, -963, 185, 92890, 488670, -115360
38204, -368, -985, 194, 98490, 518770, -128380
38224, -387, -1001, 209, 106470, 540400, -143430
38244, -409, -1026, 220, 109270, 556220, -162050
38264, -418, -1046, 217, 104790, 566020, -185990
38284, -411, -1043, 221, 108920, 564830, -212660
38304, -407, -1031, 227, 127260, 556010, -230790
38324, -407, -1031, 228, 141610, 548310, -237860
38344, -398, -1025, 228, 148120, 539630, -241010
38364, -396, -1019, 237, 159600, 524300, -240450
38384, -383, -1021, 238, 172620, 503090, -235480
38404, -368, -1016, 242, 182000, 477890, -227500
38424, -363, -1004, 256, 191380, 451780, -210420
38444, -358, -998, 260, 193620, 427070, -185640
38464, -336, -977, 257, 183750, 399210, -165200
38484, -314, -950, 259, 173950, 363300, -150500
38504, -301, -933, 264, 166740, 324030, -131740
38524, -286, -926, 265, 153020, 284970, -109970
38544, -273, -912, 271, 133910, 244650, -89180
38564, -278, -911, 275, 113190, 204260, -66290
38584, -277, -915, 275, 88130, 163030, -44310
38604, -269, -908, 273, 63490, 114870, -30800
38624, -262, -900, 276, 45360, 60270, -22400
38644, -264, -895, 276, 27930, 7000, -11060
38664, -267, -893, 270, 2590, -40950, 3640
38684, -266, -885, 265, -26390, -87080, 17710
38704, -270, -880, 259, -51380, -133490, 31220
38724, -276, -880, 252, -73640, -178360, 45850
38744, -279, -888, 245, -95200, -221830, 59220
38764, -283, -899, 242, -127750, -300790, 89530
38784, -297, -919, 244, -143010, -328650, 113680
38804, -317, -952, 241, -158830, -349930, 140770
38824, -346, -989, 249, -168070, -369950, 165970
38844, -366, -1011, 253, -170870, -390950, 183750
38864, -374, -1031, 246, -175700, -410480, 192640
38884, -377, -1048, 236, -177520, -427000, 198870
38904, -376, -1045, 235, -167020, -440790, 207620
38924, -374, -1036, 229, -151200, -451080, 215040
38944, -370, -1031, 220, -136290, -457100, 217630
38964, -365, -1021, 218, -118230, -460180, 214900
38984, -357, -1022, 219, -101010, -458290, 207200
39004, -361, -1044, 220, -90230, -448700, 197330
39024, -363, -1055, 224, -79450, -434700, 185150
39044, -357, -1051, 227, -65240, -420140, 166810
39064, -343, -1041, 224, -54670, -401800, 143080
39084, -326, -1018, 217, -48370, -377930, 118230
39104, -297, -983, 209, -42560, -350000, 93240
39124, -274, -953, 197, -39270, -316120, 70280
39144, -259, -934, 191, -35840, -276010, 53550
39164, -245, -911, 191, -26740, -233940, 41300
39184, -231, -893, 187, -16030, -190750, 28420
39204, -218, -887, 186, -10290, -143640, 15610
39224, -218, -892, 187, -7070, -91840, 7140
39244, -228, -904, 193, -2170, -37240, 3150
39264, -236, -918, 198, 3640, 16590, -1610
39284, -246, -930, 201, 9800, 67130, -10290
39304, -262, -940, 209, 17920, 114590, -19600
39324, -273, -946, 214, 24850, 158620, -30170
39344, -271, -945, 211, 27160, 198170, -46970
39364, -275, -946, 208, 26040, 234710, -66080
39384, -288, -958, 209, 24710, 270830, -78750
39404, -303, -976, 215, 26740, 304080, -86590
39424, -319, -996, 224, 33180, 330260, -96180
39444, -341, -1026, 237, 40740, 350070, -107590
39464, -362, -1048, 247, 45990, 365750, -119630
39484, -366, -1053, 251, 50190, 374500, -135800
39504, -356, -1046, 251, 56140, 374570, -157150
39524, -352, -1041, 247, 62650, 370300, -176750
39544, -349, -1037, 251, 69020, 366380, -186760
39564, -348, -1027, 256, 77350, 361550, -187950
39584, -563, -1062, 423, 85750, 353010, -186480
39604, -561, -1114, 410, 89600, 339570, -187180
39624, -257, -1036, 276, 44940, 285180, -259770
39644, -168, -1021, 248, -21420, 165690, -394730
39664, -298, -967, 383, 42700, 79730, -131460
39684, -380, -889, 451, 31710, -16870, -14560
39704, -298, -863, 336, -84560, -172760, -24290
39724, -226, -858, 201, -184800, -320320, -8260
39744, -230, -817, 186, -160860, -455700, 89180
39764, -316, -774, 234, -94710, -556010, 224280
39784, -369, -800, 213, -90650, -639100, 301420
39804, -442, -903, 157, -125650, -713790, 327810
39824, -449, -1003, 35, -118860, -763350, 342160
39844, -274, -1109, -175, -55370, -715470, 265510
39864, -224, -1105, 47, -5180, -396340, 48230
39884, -449, -1085, 356, 22120, 88060, -126560
39904, -276, -1207, 119, 39690, 352800, -188580
39924, -242, -1012, 166, 95340, 343770, -176190
39944, -444, -946, 317, 264740, 363160, 29680
39964, -406, -995, 292, 264110, 373730, 121100
39984, -213, -993, 184, 170030, 313810, 27230
40004, -292, -1031, 238, 142940, 300510, 19950
40024, -600, -1191, 346, 141190, 364560, 146720
40044, -598, -1212, 355, 101990, 376180, 175350
40064, -302, -1043, 260, 74760, 248640, -280
40084, -229, -928, 196, 73920, 137970, -132160
40104, -296, -846, 200, 79660, 133420, -104370
40124, -235, -826, 203, 102690, 119630, -87080
40144, -206, -826, 208, 131320, 65240, -129570
40164, -189, -906, 227, 141470, 35070, -130410
40184, -297, -1028, 310, 145320, 12740, -89460
40204, -454, -1128, 386, 142100, -6370, -17430
40224, -453, -1162, 363, 103110, -60060, 1750
40244, -335, -1049, 290, 43750, -160090, -54670
40264, -294, -932, 263, 2170, -250320, -87360
40284, -266, -870, 245, -30450, -300370, -61390
40304, -222, -851, 213, -74830, -332360, -25900
40324, -253, -868, 197, -121520, -350840, 16170
40344, -289, -895, 188, -153720, -348880, 78960
40364, -248, -944, 177, -160230, -352870, 120540
40384, -277, -966, 191, -150570, -360080, 131670
40404, -310, -970, 181, -137060, -324100, 166600
40424, -242, -962, 133, -127540, -270620, 182210
40444, -196, -927, 115, -105280, -229460, 147070
40464, -227, -908, 135, -56000, -162960, 124880
40484, -236, -927, 135, -4200, -63210, 118650
40504, -220, -948, 123, 28280, 34930, 80500
40524, -261, -954, 148, 56210, 124600, 27020
40544, -316, -975, 174, 93800, 221410, 3570
40564, -325, -951, 184, 141890, 353850, -52710
40584, -287, -885, 193, 156310, 372680, -95060
40604, -263, -878, 200, 154280, 384230, -117530
40624, -290, -899, 210, 141330, 393050, -108430
40644, -333, -912, 245, 142030, 372890, -91210
40664, -294, -896, 263, 152740, 310520, -94150
40684, -233, -888, 276, 151410, 229670, -100170
40704, -288, -919, 300, 128100, 170240, -62440
40724, -318, -928, 314, 99400, 100870, -24360
40744, -265, -902, 299, 74900, -6230, -28560
40764, -248, -855, 285, 44380, -108850, -27930
40784, -271, -851, 263, 2240, -183330, -630
40804, -255, -845, 233, -34510, -258510, 13300
40824, -238, -844, 221, -57120, -328160, 22470
40844, -276, -871, 217, -80360, -363370, 53970
40864, -310, -926, 197, -107730, -377300, 83580
40884, -322, -924, 181, -113610, -396130, 87080
40904, -308, -893, 154, -93100, -418250, 69580
40924, -330, -809, 135, -64050, -438830, 33530
40944, -320, -697, 37, -26810, -473200, -27930
40964, -391, -435, 150, -13370, -514500, -169470
40984, -225, -283, 88, -62370, -541730, -391300
41004, 153, -449, -124, -191730, -591010, -549990
41024, 688, -714, -362, -237580, -556430, -461510
41044, 342, -477, -97, -46270, -330610, -37380
41064, -764, -584, 382, 321440, 38990, 684530
41084, -1736, -1563, 778, 425040, 346080, 1199940
41104, -1559, -1784, 639, 150430, 345450, 940100
41124, -397, -1618, 52, -178430, -20230, -79380
41144, 21, -1481, -35, -275940, -281400, -669410
41164, -267, -982, 194, -2310, -211750, -179200
41184, -626, -922, 398, 308070, -41860, 497770
41204, -766, -1070, 427, 305480, 81900, 665840
41224, -611, -1008, 319, 113890, 53060, 390040
41244, -97, -1079, 29, -55510, -95900, -72800
41264, 213, -1298, -70, -121800, -185010, -347340
41284, -656, -1319, 279, 11130, -78610, -76650
41304, -1306, -1679, 558, 259350, 164150, 568190
41324, -1139, -1604, 507, 289240, 285670, 762510
41344, -578, -1210, 234, 128240, 150010, 261800
41364, 88, -948, 11, 4550, -56840, -326760
41384, 231, -700, 28, 8400, -119280, -488530
41404, -123, -600, 121, 106470, 19880, -195930
41424, -447, -741, 174, 163170, 261800, 240240
41444, -539, -866, 208, 104440, 413000, 449050
41464, -427, -773, 206, 54600, 377440, 332150
41484, -205, -620, 168, 122430, 52220, -259910
41504, 15, -587, 112, 107100, -2800, -375970
41524, 144, -582, 90, 75040, 67340, -297010
41544, 30, -618, 107, 42630, 230160, -74970
41564, -233, -753, 129, -16870, 400470, 148260
41584, -493, -1017, 136, -60830, 469630, 227010
41604, -574, -1096, 152, 20580, 370930, 115010
41624, -439, -915, 189, 226940, 151830, -113750
41644, -166, -755, 253, 354340, -24640, -317380
41664, 4, -799, 241, 264250, -12740, -351400
41684, -156, -990, 176, 67270, 170170, -194390
41704, -469, -1247, 142, -41510, 350980, 5600
41724, -626, -1380, 155, 31570, 365260, 80360
41744, -580, -1279, 227, 263900, 202160, 16240
41764, -416, -1128, 373, 465710, 10640, -112490
41784, -299, -1183, 374, 399700, -12530, -203280
41804, -396, -1387, 215, 129010, 151690, -177520
41824, -564, -1480, 146, 910, 291550, -63490
41844, -554, -1337, 210, 164360, 241570, 30870
41864, -459, -1161, 326, 409220, 81340, 32340
41884, -387, -1099, 397, 455980, 1330, -27860
41904, -390, -1191, 305, 265930, 63490, -76160
41924, -393, -1311, 165, 44310, 164290, -83790
41944, -395, -1248, 175, 28840, 173460, -36470
41964, -417, -1110, 287, 208810, 88760, 57050
41984, -408, -1012, 367, 344260, 2520, 110320
42004, -354, -951, 347, 284340, -26390, 66640
42024, -300, -943, 252, 100380, -10640, -17010
42044, -253, -946, 148, -52010, -1400, -69510
42064, -213, -892, 128, -66080, -38290, -65450
42084, -194, -795, 181, 41930, -110670, -16800
42104, -189, -708, 251, 153370, -177100, 38780
42124, -191, -650, 282, 162470, -209440, 67200
42144, -193, -636, 249, 60550, -212730, 63770
42164, -190, -669, 175, -88830, -209370, 44450
42184, -195, -721, 126, -202300, -220500, 29960
42204, -202, -760, 121, -227290, -255850, 34930
42224, -196, -770, 158, -168490, -309750, 56630
42244, -166, -777, 204, -84910, -362530, 84700
42264, -168, -817, 260, -48160, -385420, 119420
42284, -273, -927, 275, -88550, -352730, 179340
42304, -465, -1132, 257, -190960, -272440, 264810
42324, -619, -1330, 259, -293090, -203350, 332710
42344, -594, -1367, 276, -305060, -219030, 328300
42364, -417, -1286, 273, -215810, -324100, 243460
42384, -375, -1255, 249, -137480, -376880, 189630
42404, -475, -1262, 252, -155120, -285950, 294630
42424, -531, -1266, 260, -127680, -250530, 341040
42444, -512, -1249, 262, -75320, -281050, 290430
42464, -426, -1227, 252, -35210, -318850, 201390
42484, -347, -1248, 223, -24850, -307930, 154560
42504, -405, -1311, 238, -11760, -243390, 196210
42524, -524, -1337, 295, 34580, -176890, 269290
42544, -538, -1288, 313, 74200, -154350, 253820
42564, -424, -1185, 262, 67900, -162120, 137830
42584, -308, -1090, 203, 40600, -154070, 31430
42604, -244, -1008, 161, 34720, -113050, 6230
42624, -231, -942, 154, 62580, -57190, 37170
42644, -244, -877, 175, 105490, -6160, 73360
42664, -260, -834, 198, 133910, 34090, 79590
42684, -254, -806, 200, 122920, 65660, 41160
42704, -215, -787, 173, 82110, 92050, -26460
42724, -159, -766, 137, 46970, 119910, -84700
42744, -141, -749, 125, 41160, 157640, -101570
42764, -170, -747, 133, 57120, 206780, -79030
42784, -219, -768, 153, 74270, 256550, -48230
42804, -260, -796, 175, 83020, 291060, -43050
42824, -283, -829, 189, 84350, 302890, -75040
42844, -282, -874, 189, 81760, 298410, -131670
42864, -257, -911, 180, 84070, 288890, -188020
42884, -250, -949, 189, 99960, 287910, -216720
42904, -300, -1022, 204, 121170, 309610, -199640
42924, -410, -1132, 220, 130620, 350560, -153090
42944, -504, -1230, 237, 141890, 377230, -122570
42964, -508, -1251, 258, 184520, 356650, -139370
42984, -467, -1245, 271, 243740, 303940, -184870
43004, -435, -1238, 265, 271880, 269780, -215810
43024, -438, -1224, 252, 261730, 277270, -205030
43044, -448, -1216, 237, 243320, 303030, -167020
43064, -433, -1192, 228, 241570, 311150, -134820
43084, -413, -1154, 254, 271110, 287630, -114800
43104, -409, -1149, 285, 308000, 254100, -93170
43124, -413, -1175, 287, 300370, 240730, -70070
43144, -415, -1190, 274, 247170, 245280, -53130
43164, -407, -1157, 269, 203000, 242200, -35210
43184, -375, -1098, 272, 196700, 215040, -14000
43204, -348, -1033, 281, 206290, 170450, 1330
43224, -332, -980, 285, 200060, 129920, 11760
43244, -311, -947, 265, 161980, 103040, 16590
43264, -277, -912, 236, 103670, 78190, 9100
43284, -245, -862, 219, 49770, -8470, -1050
43304, -232, -816, 224, 54250, -59290, 12040
43324, -218, -779, 227, 47460, -105910, 23100
43344, -211, -747, 226, 19810, -145950, 28630
43364, -210, -728, 221, -23170, -179900, 31990
43384, -211, -724, 209, -70000, -212870, 34440
43404, -215, -742, 189, -107310, -248500, 38080
43424, -223, -769, 187, -124460, -285670, 47810
43444, -231, -794, 201, -126070, -320530, 64470
43464, -240, -830, 221, -134750, -344330, 86940
43484, -263, -896, 231, -165340, -349860, 117040
43504, -322, -987, 244, -204890, -340270, 157430
43524, -392, -1076, 256, -234220, -328300, 198870
43544, -452, -1156, 263, -250180, -326970, 224350
43564, -471, -1201, 262, -252140, -341600, 224770
43584, -439, -1193, 254, -238630, -365120, 210910
43604, -412, -1187, 241, -220780, -376950, 208180
43624, -426, -1198, 241, -203700, -365960, 233100
43644, -435, -1199, 251, -174580, -350560, 266140
43664, -437, -1204, 256, -137620, -343770, 278740
43684, -443, -1227, 259, -110670, -336070, 271880
43704, -443, -1251, 255, -92680, -324030, 255920
43724, -432, -1266, 249, -72380, -310450, 234780
43744, -425, -1252, 253, -44240, -293650, 217420
43764, -411, -1205, 260, -9520, -272300, 205380
43784, -383, -1147, 245, 13370, -246400, 182700
43804, -345, -1085, 219, 16030, -215880, 145250
43824, -308, -1021, 197, 17780, -185220, 106400
43844, -270, -959, 179, 29960, -155680, 74480
43864, -238, -905, 175, 47600, -123200, 51100
43884, -216, -858, 173, 64470, -85890, 34720
43904, -207, -823, 172, 73080, -42280, 21980
43924, -204, -805, 169, 68460, 6300, 8820
43944, -204, -800, 159, 55650, 54740, -8470
43964, -199, -794, 150, 45780, 98280, -29330
43984, -202, -790, 153, 46060, 136500, -49490
44004, -213, -797, 161, 53060, 172830, -64400
44024, -231, -818, 167, 58170, 208600, -75950
44044, -252, -851, 180, 59360, 241430, -90510
44064, -272, -894, 188, 59010, 268590, -110600
44084, -296, -950, 192, 59780, 289730, -134050
44104, -317, -1001, 201, 66920, 305620, -156660
44124, -341, -1044, 218, 84700, 316960, -173390
44144, -383, -1099, 234, 109130, 327110, -180810
44164, -426, -1155, 241, 128240, 339360, -182070
44184, -446, -1188, 250, 164080, 341880, -202860
44204, -446, -1198, 251, 192010, 328580, -216720
44224, -436, -1198, 251, 215320, 318080, -219100
44244, -430, -1185, 252, 231980, 313810, -207200
44264, -429, -1175, 252, 240870, 312900, -187950
44284, -423, -1172, 246, 243320, 308910, -170590
44304, -407, -1160, 248, 250390, 297430, -152600
44324, -400, -1143, 259, 260540, 282450, -128520
44344, -399, -1135, 267, 257180, 270480, -102970
44364, -387, -1120, 267, 238070, 259630, -82880
44384, -373, -1088, 262, 216860, 243180, -67760
44404, -349, -1046, 258, 200200, 219450, -54250
44424, -324, -1001, 254, 185500, 190050, -41580
44444, -306, -956, 257, 167930, 159600, -28210
44464, -291, -917, 252, 140840, 129780, -18060
44484, -269, -885, 241, 107590, 96180, -14910
44504, -249, -854, 233, 80360, 56140, -14140
44524, -237, -822, 233, 60760, 12950, -9870
44544, -226, -802, 230, 40180, -31010, -3780
44564, -218, -785, 224, 15540, -74410, 2730
44584, -219, -776, 223, -10500, -115010, 11970
44604, -225, -775, 223, -37800, -152740, 23310
44624, -235, -788, 215, -67760, -189350, 32270
44644, -242, -813, 216, -96250, -225470, 38500
44664, -251, -839, 221, -118860, -259210, 46550
44684, -265, -880, 228, -139860, -286160, 61390
44704, -289, -938, 233, -164780, -303100, 84350
44724, -322, -1000, 242, -189280, -312340, 113260
44744, -366, -1063, 258, -206080, -317870, 144060
44764, -406, -1116, 265, -218750, -320740, 171850
44784, -428, -1151, 260, -232470, -323120, 191030
44804, -423, -1164, 252, -239190, -330960, 197400
44824, -409, -1163, 244, -231420, -343000, 198730
44844, -404, -1160, 240, -212870, -350490, 208180
44864, -404, -1165, 242, -189420, -349300, 226520
44884, -411, -1174, 248, -162680, -342930, 244720
44904, -426, -1193, 259, -135310, -333900, 256200
44924, -433, -1208, 259, -112700, -322350, 257180
44944, -422, -1204, 248, -95970, -311220, 243670
44964, -394, -1172, 239, -76720, -302190, 220080
44984, -364, -1121, 228, -50260, -291970, 195720
45004, -340, -1076, 220, -25060, -273980, 175210
45024, -318, -1029, 208, -9030, -247730, 154420
45044, -297, -991, 200, 1540, -217490, 131180
45064, -275, -954, 189, 11620, -186340, 106260
45084, -256, -924, 184, 30520, -120470, 56280
45104, -237, -893, 179, 38640, -83790, 34160
45124, -221, -860, 177, 42770, -42770, 15540
45144, -214, -839, 173, 41300, 1610, -560
45164, -211, -820, 167, 37590, 45290, -17570
45184, -204, -808, 163, 35630, 85540, -36470
45204, -204, -801, 163, 36260, 122920, -55020
45224, -209, -807, 164, 37240, 159180, -71120
45244, -223, -831, 168, 38850, 194250, -84350
45264, -247, -868, 180, 42630, 226240, -96740
45284, -274, -920, 194, 48580, 253470, -110530
45304, -303, -973, 208, 54950, 275520, -127050
45324, -335, -1031, 215, 65030, 291550, -145180
45344, -361, -1073, 231, 81060, 301840, -162820
45364, -384, -1113, 243, 99190, 309260, -177450
45384, -408, -1144, 248, 115010, 315350, -189630
45404, -420, -1163, 250, 130970, 317800, -201390
45424, -420, -1160, 249, 150640, 314580, -211400
45444, -410, -1148, 249, 173460, 306880, -217350
45464, -398, -1140, 246, 192500, 300440, -216440
45484, -398, -1144, 247, 204610, 298760, -205730
45504, -401, -1144, 251, 213220, 298200, -186900
45524, -403, -1147, 253, 219660, 293790, -166740
45544, -392, -1134, 258, 224700, 283010, -148890
45564, -381, -1107, 264, 229460, 266980, -130830
45584, -367, -1081, 265, 226240, 249830, -113190
45604, -346, -1050, 258, 210350, 232680, -99050
45624, -325, -1012, 252, 188930, 214340, -85680
45644, -307, -975, 246, 169610, 192990, -69160
45664, -288, -935, 244, 153300, 166740, -52780
45684, -275, -902, 246, 137760, 135380, -39550
45704, -264, -878, 245, 118650, 101920, -28700
45724, -253, -857, 240, 91910, 68180, -20860
45744, -240, -840, 232, 60550, 32480, -17640
45764, -228, -823, 225, 31710, -5810, -14910
45784, -226, -808, 223, 9730, -44800, -6860
45804, -227, -805, 223, -8890, -83090, 5180
45824, -230, -808, 224, -30100, -120540, 16170
45844, -241, -818, 228, -54950, -154770, 26950
45864, -250, -840, 228, -82530, -184240, 38710
45884, -264, -883, 224, -113750, -210210, 49490
45904, -280, -924, 232, -140910, -234500, 62090
45924, -298, -966, 243, -156170, -256830, 80710
45944, -189, -545, 696, -166040, -273980, 104720
45964, -626, -1067, 350, -221760, -249830, 146370
45984, 156, -561, 665, -651560, -145390, 356020
46004, 395, -1998, 1244, -444430, -275240, 501130
46024, -366, -1352, 556, -164220, -273070, 303870
46044, -266, -1389, -25, 83440, -480480, -46130
46064, -338, -1204, 97, 193830, -340690, -102340
46084, -533, -1070, 310, 319550, 71820, -191030
46104, -419, -801, 470, 275310, 228970, -297920
46124, -266, -664, 421, 204050, 113400, -313460
46144, -83, -611, 314, 69090, -50330, -275520
46164, -148, -645, 314, -32270, -77350, -154980
46184, -222, -728, 314, -88060, -30310, -9660
46204, -252, -813, 369, -104720, 21420, 66430
46224, -392, -957, 439, -110390, 49490, 115850
46244, -363, -1040, 417, -93030, 3570, 157570
46264, -332, -1104, 310, -83860, -113750, 161280
46284, -391, -1075, 302, -33810, -177660, 208530
46304, -324, -1001, 245, 14000, -169330, 199360
46324, -184, -857, 281, 51870, -129150, 132650
46344, -271, -848, 351, 50820, -80360, 109410
46364, -107, -765, 285, 21490, -90650, 118160
46384, -200, -1013, 218, -13790, -113260, 43540
46404, -367, -1084, 387, 12810, -26390, -33250
46424, -281, -1012, 399, 47810, 40810, -92260
46444, -288, -982, 483, 29540, 33880, -149380
46464, -461, -1022, 584, 1260, 41930, -133980
46484, -373, -979, 385, -60340, 12180, -88480
46504, -346, -889, 374, -108080, -88620, -110880
46524, -247, -789, 352, -56420, -114240, -105490
46544, -225, -660, 461, -70, -119980, -48440
46564, -149, -385, 619, -30310, -16170, 16030
46584, -376, -765, 670, -31920, 22680, 79730
46604, -363, -1072, 402, -16940, 1400, 79450
46624, -445, -1206, 409, -50960, -67200, 98210
46644, -425, -1196, 668, 6860, -68670, 147140
46664, 25, -931, 193, 84140, -87290, 159040
46684, -172, -860, 220, 80220, -175840, 36890
46704, -335, -837, 444, 82740, -57680, -10150
46724, -342, -844, 526, 65660, 95760, -39620
46744, -347, -909, 399, 25970, 113750, -40180
46764, -316, -841, 410, -29120, 28210, -17850
46784, -314, -760, 507, -27720, 29820, -23520
46804, -366, -836, 485, -5810, 73430, -34090
46824, -366, -863, 477, -10640, 63350, -33040
46844, -339, -833, 444, -11270, 43540, -31780
46864, -283, -764, 457, -9660, 15680, -25830
46884, -306, -863, 427, -19250, 10290, 7000
46904, -334, -936, 419, -24010, 4620, 28210
46924, -286, -877, 391, -13790, -8750, 30030
46944, -275, -906, 259, -29540, -27580, 13580
46964, -323, -812, 367, -22330, 11550, 3570
46984, -312, -831, 368, -53970, 16450, 7070
47004, -363, -1030, 497, -60970, 30310, 35490
47024, -399, -824, 360, -25830, 17920, 28070
47044, -399, -851, 320, 4550, -10920, 13580
47064, -330, -881, 394, -14980, -24920, 26320
47084, -329, -901, 368, -20090, -25690, 25830
47104, -343, -857, 359, -7840, -12810, 15540
47124, -336, -875, 373, -3010, -5320, 11060
47144, -369, -888, 365, -1400, -2660, 6370
47164, -362, -888, 359, 2660, 3010, 1050
47184, -342, -894, 363, 2730, 5530, -2940
47204, -367, -899, 364, 5390, 5950, -5950
47224, -365, -846, 367, 11690, 6510, -5810
47244, -377, -874, 389, 10780, 3500, -4620
47264, -367, -860, 380, 7840, 4760, -6790
47284, -345, -885, 377, 9940, 3850, -8330
47304, -370, -874, 359, 10640, 3360, -9170
47324, -358, -885, 390, 10290, 3500, -10220
47344, -339, -872, 404, 7070, 3500, -8890
47364, -345, -873, 403, 10990, 6580, -9590
47384, -590, -95, -278, 15610, 10010, -15050
47404, -235, -1417, -734, -78260, 46620, -13300
47424, -616, -1296, 306, -624820, 442680, -15330
47444, -521, -1053, 467, -213780, 181370, -70
47464, -261, -710, -289, 186550, -89460, 26110
47484, -481, -982, 499, 247240, -71680, 29890
47504, -337, -918, 263, 25550, -2030, -10150
47524, -398, -908, 264, 17360, -16170, -3360
47544, -412, -923, 257, 22540, 700, -2310
47564, -431, -923, 244, 23310, 3150, -1960
