T [ms],AccX [mg],AccY [mg],AccZ [mg],GyroX [mdps],GyroY [mdps],GyroZ [mdps]
6065, -430, -870, 569, -14840, -17290, -87850
6085, -297, -840, 487, -21070, -6860, -109620
6105, -338, -963, 448, -24570, 22470, -62720
6125, -354, -915, 484, -24500, 100660, -63000
6145, -246, -846, 443, -17430, 113190, -63420
6165, -251, -739, 606, -4690, 76860, -94500
6185, -281, -865, 564, 17220, 27650, -35140
6205, -302, -888, 424, -19040, 11690, 38220
6225, -378, -861, 317, -66010, 55860, 50400
6245, -417, -854, 167, -95340, 69160, 67060
6265, -439, -864, 99, -117110, 39340, 65310
6285, -396, -905, 40, -96950, -2100, 25410
6305, -399, -949, 145, -20650, -10080, -24920
6325, -377, -911, 383, 63420, 8190, -59500
6345, -250, -821, 396, 84910, 5110, -67480
6365, -280, -869, 312, 39760, -20930, -31640
6385, -359, -926, 192, -46550, 22050, -13930
6405, -371, -966, -33, -115640, 71400, 7210
6425, -420, -1000, -160, -190680, 103390, 37450
6445, -404, -952, -181, -200900, 128730, 1050
6465, -348, -835, -134, -84070, 47390, -19460
6485, -314, -821, -94, 53130, -57610, -10500
6505, -355, -916, -87, 78680, -81690, -8400
6525, -417, -1013, -132, -9730, -24570, -7910
6545, -405, -953, -153, -106260, 34790, -10220
6565, -347, -823, -138, -114030, 34720, -19390
6585, -324, -787, -120, -58310, -2800, -35140
6605, -354, -914, -115, -18340, -22610, -53970
6625, -436, -1151, -120, -4760, -28910, -59010
6645, -497, -1250, -130, -15960, -34090, -31500
6665, -451, -1063, -139, -71050, -26460, 14770
6685, -368, -857, -133, -145740, -8260, 32200
6705, -318, -768, -125, -182140, -1330, 9170
6725, -320, -792, -125, -168070, -15400, -20370
6745, -333, -852, -116, -122290, -51590, -25340
6765, -343, -846, -90, -70910, -102620, 3990
6785, -357, -832, -94, -55230, -139160, 50330
6805, -383, -864, -123, -100520, -134680, 71330
6825, -390, -877, -140, -170800, -105560, 53760
6845, -350, -811, -130, -186480, -111230, 24920
6865, -300, -723, -101, -80710, -228060, 31010
6885, -278, -649, -86, -80710, -251160, 55370
6905, -286, -641, -99, -127960, -235620, 74480
6925, -316, -683, -128, -166740, -217700, 77490
6945, -345, -746, -149, -154280, -226310, 60900
6965, -368, -826, -157, -96250, -259910, 36260
6985, -374, -878, -134, -27790, -302400, 19600
7005, -343, -846, -102, -5180, -319830, 15120
7025, -348, -827, -120, -71260, -277690, 20370
7045, -260, -584, -101, -147770, -225050, 24430
7065, -249, -587, -126, -199150, -179550, 16870
7085, -391, -826, -201, -202930, -147420, -12740
7105, -563, -1337, -276, -99820, -172760, -50750
7125, -705, -1907, -198, 74900, -238910, -106120
7145, -747, -1998, -199, 121030, -282520, -55300
7165, -819, -1851, -339, -113960, -165410, 44030
7185, -615, -1276, -268, -212800, -116340, 74200
7205, -395, -883, -165, -66500, -193410, -1330
7225, -339, -866, -117, 15190, -196910, -105280
7245, -432, -1209, -134, -23380, -135240, -151200
7265, -682, -1750, -256, -139510, -31150, -137620
7285, -695, -1691, -268, -207270, 15960, -72240
7305, -490, -1198, -168, -169820, -11970, -39970
7325, -345, -878, -118, -136220, -22890, -57820
7345, -324, -835, -128, -183610, 36190, -84490
7365, -409, -1004, -169, -252980, 115430, -99960
7385, -583, -1392, -230, -271880, 159600, -103670
7405, -687, -1716, -221, -218540, 155400, -118510
7425, -569, -1580, -178, -149590, 134050, -143640
7445, -443, -1160, -186, -185080, 165060, -141890
7465, -438, -1048, -204, -271180, 218820, -96390
7485, -483, -1100, -223, -285530, 235060, -65800
7505, -496, -1144, -193, -209930, 207690, -76440
7525, -430, -1072, -137, -90510, 156380, -111790
7545, -346, -950, -129, -35840, 144690, -143500
7565, -333, -889, -148, -76860, 188930, -143150
7585, -339, -848, -173, -133140, 235760, -101990
7605, -314, -751, -150, -121100, 227850, -46480
7625, -286, -666, -127, -48580, 180530, -2100
7645, -232, -589, -106, 36400, 133140, 10710
7665, -210, -547, -94, 78820, 122990, 6860
7685, -210, -542, -91, 90510, 132510, 2730
7705, -210, -565, -99, 76580, 149870, 17850
7725, -248, -630, -109, 65730, 153020, 56070
7745, -284, -713, -109, 78470, 129850, 112070
7765, -385, -910, -116, 142030, 51030, 204540
7785, -459, -1083, -123, 130970, 46830, 205170
7805, -495, -1185, -143, 70070, 75180, 174020
7825, -450, -1141, -156, 24290, 80500, 154560
7845, -412, -1057, -142, 26880, 37030, 190190
7865, -462, -1118, -144, 50400, -25410, 256060
7885, -580, -1344, -176, 50750, -60270, 290710
7905, -668, -1536, -205, 23100, -61530, 263690
7925, -651, -1589, -230, -6370, -63770, 204330
7945, -585, -1497, -208, 3850, -103950, 182490
7965, -569, -1425, -190, 33670, -167300, 225820
7985, -618, -1453, -208, 21910, -194250, 281120
8005, -656, -1522, -240, -16660, -185010, 290850
8025, -645, -1534, -250, -24430, -182420, 255010
8045, -607, -1495, -234, 14140, -207900, 217700
8065, -622, -1537, -235, 51730, -234570, 210910
8085, -674, -1623, -252, 53970, -235550, 223020
8105, -634, -1524, -251, 48720, -223160, 217630
8125, -531, -1299, -220, 62090, -213990, 189630
8145, -443, -1106, -195, 82320, -204680, 166740
8165, -416, -1016, -184, 94220, -185710, 158690
8185, -424, -1012, -187, 99890, -153650, 148050
8205, -422, -1007, -184, 106330, -111370, 114310
8225, -365, -909, -162, 112350, -61250, 59640
8245, -296, -783, -147, 108360, -6790, 12600
8265, -254, -670, -123, 95200, 42420, -1890
8285, -242, -603, -116, 78750, 91140, 10010
8305, -258, -583, -122, 66290, 132650, 25270
8325, -309, -630, -137, 60690, 173250, 19530
8345, -397, -763, -155, 66710, 215600, -23660
8365, -524, -1011, -176, 90230, 253330, -105210
8385, -653, -1406, -181, 126770, 283920, -211190
8405, -708, -1775, -206, 142240, 318290, -310100
8425, -704, -1745, -264, 86730, 368130, -337120
8445, -714, -1544, -275, 32830, 370580, -248640
8465, -835, -1627, -265, 87920, 290920, -162400
8485, -919, -1832, -261, 173460, 227920, -205520
8505, -836, -1917, -260, 200270, 219590, -351330
8525, -784, -1921, -279, 173460, 227500, -462490
8545, -873, -1950, -298, 158130, 174370, -402990
8565, -885, -1839, -279, 168560, 77070, -268310
8585, -759, -1619, -240, 174160, 14140, -259210
8605, -616, -1441, -211, 151830, -840, -363020
8625, -557, -1343, -194, 122080, -22400, -410480
8645, -544, -1248, -179, 100520, -75320, -344960
8665, -497, -1085, -163, 35490, -142240, -226800
8685, -402, -885, -141, -13860, -128800, -251930
8705, -329, -741, -127, -45850, -119630, -270830
8725, -247, -623, -119, -51240, -126560, -262850
8745, -209, -557, -101, -44380, -135450, -227290
8765, -169, -504, -95, -43050, -139930, -170660
8785, -162, -486, -93, -45360, -140700, -108290
8805, -165, -482, -98, -52150, -129290, -46760
8825, -172, -491, -103, -47950, -119910, 910
8845, -193, -523, -111, -32970, -112000, 37170
8865, -206, -556, -114, -420, -113820, 64330
8885, -230, -613, -113, 40740, -121380, 85330
8905, -248, -676, -106, 77280, -128730, 105350
8925, -291, -784, -107, 92400, -127610, 129360
8945, -364, -955, -127, 79310, -115570, 158830
8965, -475, -1200, -177, 50260, -99260, 188510
8985, -553, -1372, -201, 43050, -105490, 217560
9005, -549, -1369, -191, 71890, -141330, 236180
9025, -529, -1337, -182, 100310, -177240, 246190
9045, -583, -1454, -208, 95830, -188650, 253610
9065, -673, -1657, -246, 82880, -196910, 268240
9085, -759, -1845, -272, 90230, -218750, 278530
9105, -763, -1856, -279, 101570, -246400, 274680
9125, -730, -1778, -276, 100380, -263060, 255990
9145, -697, -1696, -273, 100240, -276080, 238630
9165, -667, -1606, -261, 114520, -293930, 229740
9185, -625, -1509, -250, 127260, -300300, 211260
9205, -599, -1469, -250, 124600, -285320, 177590
9225, -587, -1473, -250, 118860, -262080, 143920
9245, -568, -1431, -239, 127470, -247660, 128940
9265, -508, -1283, -215, 140000, -234500, 130970
9285, -431, -1077, -189, 133070, -201880, 130830
9305, -350, -883, -170, 112350, -151480, 121170
9325, -286, -731, -153, 99540, -98700, 104720
9345, -252, -649, -135, 98700, -47810, 87920
9365, -236, -606, -126, 95620, 10640, 68670
9385, -243, -609, -125, 85820, 70770, 57120
9405, -266, -641, -130, 67060, 135380, 48160
9425, -316, -702, -142, 43820, 201880, 34090
9445, -373, -800, -150, 30310, 254590, 21490
9465, -452, -942, -165, 26040, 301070, -11130
9485, -541, -1142, -179, 33670, 337260, -58730
9505, -645, -1403, -204, 44030, 370720, -125440
9525, -707, -1607, -232, 47250, 402640, -192920
9545, -698, -1598, -239, 54320, 416850, -246540
9565, -717, -1538, -245, 87710, 375130, -228130
9585, -788, -1626, -259, 135030, 330540, -246470
9605, -861, -1814, -274, 184030, 291200, -309400
9625, -838, -1923, -263, 216650, 251440, -368200
9645, -737, -1786, -235, 204190, 210490, -352730
9665, -666, -1527, -225, 170660, 161280, -271250
9685, -673, -1436, -227, 161420, 109550, -225400
9705, -637, -1373, -201, 176610, 65660, -252490
9725, -571, -1326, -173, 180320, 32060, -298200
9745, -494, -1225, -148, 147490, 6090, -292530
9765, -449, -1086, -144, 91140, -17990, -229110
9785, -422, -947, -141, 51940, -46060, -168490
9805, -384, -833, -124, 39900, -72450, -154630
9825, -332, -740, -109, 34930, -87640, -179410
9845, -285, -676, -95, 20790, -94710, -200760
9865, -243, -630, -88, -1190, -103460, -192710
9885, -222, -586, -83, -21350, -116830, -152600
9905, -208, -549, -83, -35980, -134890, -93100
9925, -206, -521, -83, -45430, -153580, -35560
9945, -211, -511, -89, -53620, -162890, 5530
9965, -212, -513, -93, -59640, -162120, 22750
9985, -218, -540, -99, -59220, -156240, 22680
10005, -241, -616, -109, -47600, -157150, 26040
10025, -279, -736, -119, -19600, -174300, 48580
10045, -359, -928, -129, 16520, -203560, 94710
10065, -476, -1174, -146, 40180, -229670, 154420
10085, -567, -1335, -183, 23100, -227360, 196140
10105, -543, -1295, -218, -24710, -200690, 197260
10125, -497, -1227, -211, -35140, -199080, 175350
10145, -513, -1296, -205, 21140, -243670, 175700
10165, -614, -1516, -212, 86170, -294140, 206290
10185, -718, -1723, -253, 102690, -308420, 238980
10205, -708, -1690, -293, 67620, -282520, 234710
10225, -630, -1536, -277, 51240, -267610, 200480
10245, -654, -1629, -272, 106680, -299390, 178640
10265, -758, -1888, -281, 170030, -330330, 175350
10285, -805, -1986, -321, 177590, -318990, 171780
10305, -677, -1677, -297, 145390, -282100, 154840
10325, -525, -1312, -236, 151690, -272650, 136150
10345, -436, -1098, -201, 194600, -281400, 129150
10365, -415, -1037, -194, 206500, -253330, 116060
10385, -393, -997, -192, 182000, -187460, 88900
10405, -358, -922, -183, 155890, -115640, 58170
10425, -297, -799, -158, 152180, -62580, 42700
10445, -255, -674, -137, 148050, 32410, 61880
10465, -231, -593, -128, 117040, 103810, 71400
10485, -240, -561, -136, 81550, 181090, 69020
10505, -225, -510, -132, 60410, 250320, 54250
10525, -243, -505, -131, 51870, 310800, 26530
10545, -276, -529, -136, 57610, 354340, -70
10565, -349, -643, -150, 67270, 395850, -46130
10585, -487, -877, -183, 88830, 428680, -111440
10605, -666, -1260, -217, 128940, 450170, -200200
10625, -792, -1682, -232, 169680, 465780, -303450
10645, -721, -1730, -237, 165270, 482580, -356650
10665, -648, -1463, -252, 135450, 465500, -285320
10685, -680, -1372, -262, 162820, 395010, -181790
10705, -729, -1415, -249, 242970, 313950, -174160
10725, -722, -1486, -223, 311710, 254800, -251650
10745, -617, -1457, -176, 316610, 224840, -323610
10765, -577, -1421, -185, 254030, 207410, -297010
10785, -618, -1401, -213, 204260, 158900, -189560
10805, -630, -1358, -200, 215460, 77980, -116760
10825, -540, -1198, -150, 239820, 10920, -136360
10845, -423, -1016, -114, 211890, -14280, -190540
10865, -360, -905, -109, 138390, -17570, -197330
10885, -346, -844, -115, 77280, -35630, -146930
10905, -354, -829, -117, 60620, -80290, -83510
10925, -350, -803, -102, 63420, -124880, -48020
10945, -338, -792, -95, 53690, -147980, -47880
10965, -309, -762, -93, 7420, -138320, -63280
10985, -300, -749, -105, -46200, -125650, -61740
11005, -293, -726, -109, -78960, -132650, -29540
11025, -303, -734, -109, -76020, -164010, 19740
11045, -321, -776, -108, -63350, -196350, 65940
11065, -333, -829, -100, -65310, -212100, 98280
11085, -448, -989, -157, -91280, -209720, 122920
11105, -475, -1058, -161, -137760, -198800, 165410
11125, -345, -1026, -125, -129430, -217280, 166110
11145, -506, -1358, -156, -87150, -269080, 175630
11165, -770, -1582, -193, -59360, -345030, 338030
11185, -972, -1708, -242, -37100, -431340, 568890
11205, -892, -1579, -251, -44240, -455350, 618660
11225, -685, -1322, -191, -74550, -428960, 418810
11245, -650, -1232, -180, -37450, -474670, 191450
11265, -730, -1216, -188, 19530, -608790, 129850
11285, -787, -1141, -210, 5670, -729120, 154770
11305, -705, -881, -211, -82600, -778890, 111020
11325, -554, -530, -191, -192920, -834750, -160300
11345, -515, -330, -253, -397110, -909930, -163660
11365, -531, -247, -302, -429240, -1031310, -80640
11385, -638, -431, -410, -399280, -1162070, 15750
11405, -804, -851, -501, -320320, -1268260, 89880
11425, -966, -1455, -591, -226520, -1310330, 98630
11445, -1126, -1984, -745, -160370, -1241030, 40810
11465, -875, -1684, -668, -42210, -1140370, -75390
11485, -650, -1392, -622, 105000, -1008770, -210560
11505, -619, -1329, -551, 196140, -805910, -296100
11525, -464, -1219, -540, 286300, -575680, -396900
11545, -252, -1228, -458, 381150, -351820, -438270
11565, -128, -898, -417, 443100, -127960, -305270
11585, -72, -554, -258, 454790, 102970, -62160
11605, -214, -442, -281, 422380, 351890, 131390
11625, -615, -624, -496, 194950, 742980, 190680
11645, -235, -24, -161, -100800, 1221080, 33810
11665, -1214, -1395, -598, -170940, 1397200, -89880
11685, -1097, -1495, -133, -49910, 1246630, -168700
11705, -1072, -1484, 222, 341390, 911750, -375690
11725, -1086, -981, 425, 258580, 707000, -395710
11745, -721, -989, 28, 120750, 255570, -302890
11765, -512, -736, 25, 142590, -182560, -108570
11785, -304, -742, -45, 147840, -349090, 10430
11805, -340, -969, -140, 139370, -460390, 140350
11825, -472, -1172, -164, 108150, -405580, 282310
11845, -399, -954, -48, 100240, -270060, 359100
11865, -342, -734, 10, 77070, -154770, 363580
11885, -410, -799, -20, 17220, -96320, 366870
11905, -486, -954, -44, -67270, -41300, 338660
11925, -476, -963, 1, -135170, 33880, 242970
11945, -546, -969, 63, -168210, 115990, 111090
11965, -648, -1007, 132, -158550, 184940, -20930
11985, -651, -996, 151, -118160, 205730, -140000
12005, -636, -976, 127, -62090, 157990, -230160
12025, -597, -942, 79, 17570, 100310, -274190
12045, -543, -912, 32, 102200, 51520, -268590
12065, -484, -895, 3, 159250, 4550, -227570
12085, -411, -762, 28, 171500, -24640, -159810
12105, -373, -756, 0, 148820, -37730, -85050
12125, -392, -825, 9, 95130, -48580, -11830
12145, -418, -906, 28, 30380, -34720, 49070
12165, -434, -979, -2, -35490, -19740, 94990
12185, -404, -936, 24, -90020, -30240, 122360
12205, -427, -946, 33, -107800, -10920, 129990
12225, -483, -951, 99, -82250, 59220, 108850
12245, -536, -1042, 96, -56070, 54670, 70350
12265, -467, -969, 50, -22890, 10640, 16030
12285, -454, -902, 26, 15680, -10290, -26040
12305, -479, -874, 31, 49980, 14420, -50400
12325, -487, -886, 20, 51240, 11200, -67130
12345, -443, -852, 6, 33460, -3780, -75880
12365, -456, -891, -13, 17430, -4900, -72170
12385, -491, -878, 41, 9450, 20440, -48790
12405, -471, -854, 33, 2520, 24710, -28350
12425, -475, -902, 38, -12320, 2310, -5320
12445, -474, -929, 48, -15330, -3010, 18620
12465, -448, -927, 34, -13090, -16590, 34440
12485, -454, -950, 29, -8400, -23520, 44240
12505, -432, -925, 15, -1960, -24570, 42140
12525, -427, -916, 12, 2730, -19950, 26390
12545, -430, -914, 15, 2940, -7560, 8680
12565, -444, -920, 23, -1890, 4200, -7560
12585, -454, -909, 29, -2240, 11900, -22260
12605, -459, -899, 32, -1750, 15330, -29470
12625, -462, -889, 32, 0, 14630, -28770
12645, -467, -893, 23, 3080, 9800, -21700
12665, -471, -912, 19, 4620, 4690, -11200
12685, -453, -883, 23, 3430, 280, -1190
12705, -451, -905, 30, -1260, -4550, 8260
12725, -449, -931, 27, -8540, -6300, 17570
12745, -438, -925, 31, -12390, -8190, 19810
12765, -427, -892, 33, -10220, -6790, 15820
12785, -430, -902, 27, -5320, -4620, 9450
12805, -449, -943, 10, -3080, -1540, 3780
12825, -437, -902, 19, -210, 3150, -3990
12845, -456, -925, 10, 6090, 7280, -14490
12865, -452, -901, 9, 7910, 9870, -19040
12885, -452, -886, 16, 7770, 9030, -19950
12905, -454, -896, 35, 2170, 10360, -15330
12925, -462, -932, 38, -7490, 10570, -6860
12945, -458, -933, 39, -17500, 5040, 5320
12965, -442, -914, 30, -17290, -1750, 14700
12985, -440, -920, 24, -7000, -7630, 16590
13005, -443, -934, 6, 6090, -7140, 12810
13025, -440, -918, 5, 14210, -5180, 5460
13045, -445, -920, -4, 12460, -2170, -1260
13065, -446, -902, 18, 2450, 1890, -6650
13085, -456, -912, 30, -4620, 9870, -13090
13105, -456, -916, 40, -9450, 13860, -14560
13125, -462, -920, 47, -4620, 7700, -8190
13145, -459, -924, 31, -910, -490, -2660
13165, -444, -885, 26, 3010, -5320, 2100
13185, -444, -898, 18, 6860, -5880, 3570
13205, -448, -921, 6, 7350, -5390, 3710
13225, -441, -905, 9, 3360, -3710, 3500
13245, -449, -918, 20, -910, 770, 1260
13265, -443, -911, 29, -4060, 2870, -2170
13285, -450, -923, 24, -6370, 1260, -2450
13305, -447, -917, 16, -4270, -350, -1890
13325, -453, -918, 11, 4410, 420, -4690
13345, -440, -876, 20, 11830, 2310, -9100
13365, -456, -911, 19, 7210, 3500, -8820
13385, -453, -921, 31, -3780, 4340, -5110
13405, -453, -918, 41, -11760, 2310, -980
13425, -445, -913, 36, -12810, -1050, 3080
13445, -449, -917, 23, -5180, -4550, 4550
13465, -440, -908, 8, 3080, -6230, 4760
13485, -437, -902, 4, 6300, -7910, 4760
13505, -438, -908, 1, 3780, -5810, 5670
13525, -446, -930, 1, 0, -3780, 4200
13545, -444, -926, 11, -2940, -280, 840
13565, -444, -910, 24, -5180, 2170, -3920
13585, -445, -916, 28, -8890, 2520, -6090
13605, -451, -923, 30, -9520, 2520, -6090
13625, -448, -919, 14, -3430, 1820, -5250
13645, -449, -909, 7, 2240, -1470, -3290
13665, -440, -886, 5, 6580, -2380, -1470
13685, -451, -928, -1, 6090, -3220, -420
13705, -454, -933, 4, 1750, -350, 70
13725, -442, -896, 18, -2940, 1960, -70
13745, -435, -893, 32, -7140, 2310, 490
13765, -449, -927, 42, -10990, 2800, 2520
13785, -446, -924, 47, -11900, 3850, 4270
13805, -456, -936, 39, -7350, 1890, 1960
13825, -445, -906, 26, 70, -560, -1260
13845, -457, -935, 1, 8120, -4340, -4970
13865, -452, -901, 0, 13930, -4970, -7350
13885, -443, -883, 5, 16170, -2590, -9100
13905, -446, -895, 16, 9800, -1050, -7420
13925, -452, -934, 16, -2590, 140, -630
13945, -451, -939, 22, -11410, -1190, 5670
13965, -433, -902, 16, -10500, -2310, 8050
13985, -433, -896, 19, -5320, -5390, 7000
14005, -442, -930, 14, 1330, -1750, 630
14025, -446, -925, 11, 2940, 980, -5530
14045, -441, -889, 24, 910, 4340, -10710
14065, -440, -877, 31, -5250, 5740, -11550
14085, -442, -883, 36, -11060, 4060, -7210
14105, -461, -929, 32, -9520, 3010, -2310
14125, -444, -889, 27, -560, 420, 840
14145, -449, -903, 15, 7210, -3570, 3220
14165, -450, -920, 5, 10780, -4340, 4550
14185, -441, -904, 9, 8540, -4060, 5390
14205, -444, -912, 8, 3500, -3220, 5040
14225, -449, -924, 19, -2800, 0, 4340
14245, -441, -905, 39, -7910, 2660, 2030
14265, -456, -944, 40, -12180, 3850, 420
14285, -447, -918, 47, -11550, 2380, 140
14305, -450, -927, 31, -3290, -2450, 140
14325, -461, -953, 2, 8050, -5740, 350
14345, -440, -900, -1, 16940, -7700, -1610
14365, -439, -901, 4, 14000, -6160, -1960
14385, -440, -913, 22, -350, -140, 1330
14405, -447, -924, 42, -13370, 5180, 1680
14425, -454, -939, 44, -19390, 7490, 630
14445, -453, -933, 45, -16100, 4690, -2030
14465, -447, -905, 44, -3640, 2310, -6720
14485, -456, -916, 31, 6090, 420, -9520
14505, -448, -899, 33, 7490, -280, -9520
14525, -448, -890, 39, 4130, -280, -7140
14545, -448, -907, 31, -280, -1960, -2660
14565, -440, -903, 32, -2170, -5250, 1540
14585, -442, -909, 20, 350, -7070, 2940
14605, -442, -916, 15, 2030, -6580, 4270
14625, -436, -907, 17, 2590, -5670, 3780
14645, -447, -936, 14, 1260, -3990, 2240
14665, -444, -926, 21, -1750, -1050, 420
14685, -438, -899, 31, -4620, 560, -2100
14705, -433, -900, 29, -9170, 560, -1750
14725, -450, -929, 28, -9800, 140, -490
14745, -450, -933, 16, -2380, 3080, -1260
14765, -447, -914, 22, 4550, 2590, -3850
14785, -442, -909, 30, 1820, 1330, -3290
14805, -443, -917, 50, -5950, 210, -2170
14825, -446, -935, 63, -13160, 420, -1610
14845, -464, -954, 78, -18200, 3430, -1960
14865, -476, -981, 95, -21210, 7490, -2800
14885, -481, -985, 128, -22120, 11200, -7350
14905, -523, -1061, 162, -40880, 25130, -13790
14925, -535, -1075, 173, -59710, 22330, -3570
14945, -557, -1094, 163, -58590, -5810, 1330
14965, -516, -1029, 150, -36680, -41090, -2170
14985, -478, -976, 135, -6650, -65240, -8190
15005, -471, -998, 106, 18970, -74760, -18690
15025, -444, -929, 134, 38010, -71680, -26320
15045, -435, -873, 166, 39410, -76650, -30380
15065, -484, -1022, 116, 23520, -89880, -34580
15085, -518, -1140, 88, 9100, -110460, -36820
15105, -470, -1059, 113, 7560, -116200, -37800
15125, -444, -1029, 117, 7000, -123620, -24780
15145, -457, -1034, 130, 6090, -121170, 840
15165, -447, -969, 156, 11270, -113050, 26040
15185, -436, -948, 144, 12320, -122990, 40250
15205, -436, -977, 101, 12110, -138880, 44170
15225, -434, -951, 92, 21630, -141050, 40040
15245, -394, -901, 84, 33460, -125650, 24290
15265, -335, -796, 122, 35840, -107030, 5110
15285, -327, -800, 151, 21700, -81060, -7490
15305, -382, -863, 159, -10150, -57610, -4410
15325, -416, -906, 172, -33810, -46480, 4200
15345, -372, -899, 126, -34440, -54740, -3780
15365, -351, -807, 152, -10500, -60200, -14000
15385, -340, -736, 183, 22470, -33390, -13580
15405, -297, -694, 182, 27510, -27860, -8400
15425, -301, -761, 151, 4130, -46480, 2380
15445, -330, -815, 155, -17430, -52710, 15470
15465, -304, -779, 150, -19040, -42000, 20090
15485, -295, -758, 158, -21350, -36540, 23520
15505, -349, -849, 173, -30450, -25760, 29400
15525, -374, -857, 191, -33390, -8540, 30730
15545, -371, -947, 74, -22680, -8750, 17570
15565, -423, -908, 231, -13300, -12670, 6090
15585, -306, -855, 103, 5880, 7350, -6370
15605, -457, -908, 279, -9730, -14140, -10150
15625, -329, -925, 96, -15330, 21140, 14070
15645, -421, -947, 247, -34510, -20510, 2870
15665, -337, -888, 183, -24640, 4620, 14910
15685, -374, -917, 212, -32620, -10150, 22050
15705, -351, -902, 211, -41440, -14910, 36890
15725, -368, -953, 209, -46130, -14280, 44730
15745, -360, -967, 207, -48720, -24360, 40740
15765, -387, -1023, 193, -39200, -19740, 29610
15785, -405, -1014, 190, -30520, -14700, 15330
15805, -409, -983, 151, 3850, 5250, -24500
15825, -434, -945, 177, 24780, 28770, -36190
15845, -388, -877, 125, 21350, 17920, -41090
15865, -413, -836, 153, 19670, 21140, -31430
15885, -386, -825, 93, 16170, 12110, -24080
15905, -361, -765, 76, 15610, -1120, -14000
15925, -328, -673, 66, 23030, 980, -5390
15945, -303, -624, 28, 25830, 1260, -8960
15965, -180, -426, -104, 40600, 16940, -24500
15985, -234, -531, -192, 143360, 51100, -48020
16005, -227, -446, -258, 319690, 66220, -56280
16025, -71, -201, -350, 521920, 37730, -69230
16045, -75, -71, -235, 705320, 93380, -78330
16065, -141, -95, -88, 815570, 182630, -56910
16085, -237, -315, 0, 722050, 355320, -46130
16105, -770, -1153, -222, 388080, 657230, -66220
16125, -1877, -1998, -1091, -230860, 1208270, -233240
16145, -438, -1814, -762, -342510, 1580110, -637840
16165, -679, -803, -219, 604310, 953750, -147280
16185, -1332, -1257, -640, 858340, 674240, 552650
16205, -1500, -1385, -805, 423780, 1056930, 376110
16225, -816, -874, -713, 588560, 1099140, -163240
16245, -199, -1057, 340, 1211910, 649600, -351120
16265, -1264, -1988, -578, 1172150, 524930, 20370
16285, -1413, -1998, -834, 99050, 962780, 510230
16305, -667, -1423, -416, -113190, 912240, 517230
16325, -652, -1322, -59, 680120, 233240, 537110
16345, -895, -1509, -186, 826350, 114590, 537670
16365, -819, -1711, -470, 169120, 599690, 325570
16385, -457, -1224, -271, -266210, 896140, 85120
16405, -452, -964, -119, 11270, 592550, 201460
16425, -625, -984, -103, 257250, 281820, 479500
16445, -759, -1185, -216, 169050, 284480, 545160
16465, -644, -1119, -237, -85330, 456260, 345520
16485, -399, -802, -141, -194880, 550200, 34440
16505, -217, -574, -83, -46830, 431340, -127400
16525, -159, -456, -4, 116620, 247380, -107870
16545, -141, -406, 3, 137970, 167020, -25550
16565, -212, -457, -57, 43190, 151900, 73080
16585, -302, -528, -95, -84490, 154560, 154910
16605, -351, -575, -112, -145390, 138390, 169260
16625, -348, -565, -131, -92890, 67200, 108360
16645, -338, -542, -133, 40670, -52360, -1890
16665, -320, -570, -125, 184660, -176260, -119070
16685, -299, -700, -102, 269570, -329630, -238560
16705, -441, -1168, -152, 173740, -322000, -209510
16725, -679, -1724, -267, 69230, -321580, -120260
16745, -964, -1998, -357, 24360, -336490, -45570
16765, -896, -1732, -352, 49070, -372750, -84980
16785, -634, -1255, -269, 88690, -396620, -241290
16805, -555, -1168, -236, 60060, -384230, -342230
16825, -652, -1408, -261, 17780, -389060, -340340
16845, -862, -1783, -312, -8750, -408240, -309680
16865, -856, -1887, -285, -35280, -411320, -334670
16885, -820, -1785, -334, -131740, -363650, -371560
16905, -701, -1523, -278, -178850, -353710, -357070
16925, -602, -1279, -242, -171990, -375900, -337120
16945, -408, -962, -218, -194670, -375410, -315280
16965, -445, -1062, -218, -251650, -339010, -294210
16985, -374, -925, -205, -283990, -316680, -227290
17005, -212, -495, -105, -304360, -302470, -172830
17025, -456, -1075, -350, -333830, -242200, -148750
17045, -595, -1246, -150, -250040, -231000, -119560
17065, -622, -1550, -256, 28140, -417830, -73920
17085, -529, -1562, -370, -174650, -247590, -114100
17105, -394, -1062, -207, -375410, -35840, -169680
17125, -375, -852, -210, -256620, -139510, -39760
17145, -283, -636, -173, -151340, -178570, 33880
17165, -136, -370, -83, -79450, -144550, -10990
17185, -143, -410, -142, -7560, -134330, -39830
17205, -191, -469, -152, -5810, -95970, -35420
17225, -171, -385, -88, 56210, -77210, -32830
17245, -141, -488, -148, 156170, -93940, -49700
17265, -298, -792, -210, 75460, 36820, -104860
17285, -342, -1101, -263, 5250, 198310, -114380
17305, -484, -1385, -251, 77700, 220010, -79030
17325, -607, -1370, -177, 274540, 81830, 82740
17345, -559, -1262, -225, 330750, 79100, 175980
17365, -494, -1073, -259, 219870, 212100, 133140
17385, -413, -898, -226, 172060, 285950, 86100
17405, -290, -810, -209, 219450, 300860, 30240
17425, -302, -867, -174, 288470, 289380, 33250
17445, -485, -1093, -194, 333760, 256760, 150710
17465, -714, -1446, -264, 323750, 238210, 290360
17485, -724, -1633, -300, 251510, 293300, 306950
17505, -627, -1461, -268, 182070, 370020, 202650
17525, -508, -1204, -183, 186620, 370090, 166670
17545, -439, -1021, -150, 228550, 318780, 212590
17565, -545, -1087, -219, 173530, 332150, 266420
17585, -621, -1205, -245, -420, 393470, 318010
17605, -577, -1226, -199, 73150, 339990, 244160
17625, -571, -1292, -173, 109690, 320740, 167510
17645, -587, -1324, -177, 71820, 330190, 150080
17665, -582, -1296, -203, -13930, 363160, 144690
17685, -527, -1185, -203, -81480, 389410, 119560
17705, -476, -1031, -185, -69860, 353710, 120610
17725, -431, -916, -162, -21700, 293650, 123340
17745, -374, -808, -128, 13860, 258370, 92400
17765, -336, -743, -113, 18970, 248010, 53270
17785, -347, -751, -126, -7070, 254660, 24360
17805, -360, -813, -153, -38640, 270480, -7770
17825, -351, -818, -144, -14280, 249900, -28490
17845, -347, -830, -121, 68460, 171850, 350
17865, -369, -845, -119, 114450, 109270, 40040
17885, -380, -845, -122, 112000, 82600, 55720
17905, -376, -832, -123, 90300, 81340, 29330
17925, -363, -841, -123, 73080, 80570, -15680
17945, -353, -866, -132, 74200, 58240, -39200
17965, -356, -902, -135, 104720, 910, -19250
17985, -415, -1007, -137, 154070, -81270, 37310
18005, -514, -1168, -147, 177940, -146090, 90510
18025, -623, -1382, -193, 150360, -162470, 88270
18045, -666, -1525, -232, 102060, -155050, 31500
18065, -649, -1527, -246, 85960, -177310, -27790
18085, -587, -1393, -225, 112700, -245350, -37240
18105, -585, -1326, -211, 144620, -321300, -13440
18125, -609, -1324, -220, 129640, -351890, -3640
18145, -649, -1375, -246, 79100, -345870, -38290
18165, -627, -1385, -258, 50960, -346500, -100730
18185, -636, -1425, -267, 56140, -365890, -161000
18205, -612, -1375, -238, 59990, -389760, -173040
18225, -579, -1286, -228, 52290, -402430, -167510
18245, -557, -1197, -223, 18480, -393260, -169050
18265, -523, -1095, -223, -30240, -371840, -172690
18285, -482, -1017, -211, -71610, -339430, -210560
18305, -435, -961, -197, -83230, -319620, -253260
18325, -404, -934, -167, -65520, -335580, -252700
18345, -399, -918, -173, -69020, -344260, -221410
18365, -379, -867, -164, -108850, -319200, -189280
18385, -348, -806, -160, -138390, -296520, -160370
18405, -339, -769, -161, -157360, -277060, -137760
18425, -314, -721, -166, -163380, -260190, -120610
18445, -281, -670, -149, -155750, -244930, -115430
18465, -252, -635, -146, -132090, -233800, -113120
18485, -240, -622, -143, -86100, -215110, -72590
18505, -241, -630, -147, -62650, -207550, -34020
18525, -261, -672, -154, -38360, -196350, 280
18545, -288, -731, -162, -10570, -180390, 22610
18565, -324, -808, -174, 24850, -164290, 31080
18585, -353, -891, -182, 65520, -149240, 28070
18605, -365, -951, -180, 95830, -125160, 19250
18625, -375, -1003, -183, 109410, -92470, 18410
18645, -394, -1047, -192, 115780, -63070, 39690
18665, -416, -1078, -203, 127330, -43260, 76020
18685, -421, -1073, -205, 145110, -25130, 102410
18705, -414, -1059, -200, 167650, -5460, 110110
18725, -432, -1104, -204, 188580, 13510, 112350
18745, -485, -1250, -218, 197190, 37590, 114800
18765, -571, -1500, -244, 198800, 61180, 126210
18785, -672, -1708, -274, 199850, 72940, 165410
18805, -654, -1601, -260, 195160, 80010, 210700
18825, -544, -1328, -230, 181720, 97440, 216510
18845, -494, -1193, -215, 164640, 118090, 210350
18865, -483, -1172, -206, 161000, 126490, 215950
18885, -523, -1267, -206, 170870, 125160, 224000
18905, -590, -1391, -219, 170870, 129990, 233170
18925, -582, -1373, -213, 156240, 144690, 232260
18945, -507, -1224, -193, 135520, 166530, 205660
18965, -452, -1082, -184, 106680, 190820, 183260
18985, -424, -984, -174, 83580, 202860, 193060
19005, -420, -944, -172, 82670, 198800, 211400
19025, -436, -955, -173, 89600, 197610, 209790
19045, -445, -982, -173, 93170, 207480, 180180
19065, -425, -962, -164, 97230, 220290, 131390
19085, -387, -896, -152, 97720, 233940, 83090
19105, -348, -815, -144, 87080, 249340, 55160
19125, -328, -746, -141, 75600, 256830, 55440
19145, -319, -695, -139, 74200, 253120, 69930
19165, -314, -658, -138, 86520, 242060, 76580
19185, -305, -630, -132, 109900, 230930, 63070
19205, -306, -632, -133, 140910, 219940, 32900
19225, -321, -681, -136, 173880, 208250, -2800
19245, -356, -788, -145, 207410, 190260, -31080
19265, -430, -1001, -160, 238840, 165970, -44730
19285, -532, -1286, -188, 255780, 145460, -44380
19305, -641, -1553, -226, 250250, 133070, -31850
19325, -678, -1600, -245, 232260, 119980, -7490
19345, -593, -1399, -220, 217350, 100800, 8540
19365, -525, -1236, -192, 237510, 23520, 350
19385, -504, -1192, -184, 241290, -13160, -770
19405, -545, -1292, -194, 231350, -39340, -1330
19425, -611, -1465, -214, 223370, -68320, 2310
19445, -662, -1575, -225, 217490, -101010, 2660
19465, -635, -1517, -220, 197820, -123480, -8750
19485, -562, -1335, -201, 170870, -139580, -24570
19505, -511, -1200, -189, 147350, -156310, -34860
19525, -483, -1131, -184, 134050, -176330, -43120
19545, -471, -1103, -178, 128590, -197120, -53340
19565, -472, -1105, -175, 118090, -211120, -64330
19585, -473, -1109, -176, 93800, -212240, -76160
19605, -452, -1075, -173, 64120, -206430, -87360
19625, -433, -1022, -167, 40040, -202230, -91630
19645, -399, -937, -159, 21980, -201110, -89880
19665, -354, -838, -143, 12040, -202230, -88760
19685, -308, -736, -127, 770, -199010, -88830
19705, -274, -657, -111, -15890, -189490, -86660
19725, -247, -609, -109, -35420, -177450, -76160
19745, -238, -593, -106, -53060, -166670, -62230
19765, -239, -603, -109, -68600, -152460, -45290
19785, -257, -653, -117, -75950, -143080, -25620
19805, -280, -710, -119, -71330, -140490, -350
19825, -312, -792, -119, -58660, -142450, 28560
19845, -348, -872, -127, -58380, -134120, 55440
19865, -386, -953, -142, -78260, -111160, 76440
19885, -415, -1016, -155, -102200, -85260, 89950
19905, -427, -1051, -164, -109200, -71050, 97930
19925, -418, -1054, -157, -95760, -71400, 106120
19945, -411, -1044, -144, -71960, -81130, 122500
19965, -436, -1077, -151, -60970, -85540, 149450
19985, -478, -1149, -172, -77630, -72940, 176540
20005, -522, -1247, -188, -95130, -58660, 191170
20025, -563, -1365, -198, -89810, -58240, 189910
20045, -567, -1419, -191, -67060, -69510, 180460
20065, -546, -1361, -180, -48160, -81900, 177030
20085, -544, -1312, -193, -58730, -81480, 192990
20105, -545, -1284, -202, -89250, -71260, 216160
20125, -536, -1272, -197, -92050, -74550, 222810
20145, -536, -1289, -193, -62860, -92120, 211680
20165, -525, -1300, -187, -36610, -103180, 193410
20185, -526, -1298, -189, -30450, -100240, 176960
20205, -543, -1298, -207, -47950, -84700, 176330
20225, -520, -1231, -197, -61600, -74200, 189000
20245, -467, -1118, -177, -42980, -78680, 186060
20265, -403, -986, -158, -12250, -60900, 129920
20285, -358, -882, -147, -18060, -37520, 110110
20305, -332, -816, -144, -28000, -11830, 101850
20325, -322, -772, -144, -27160, 7000, 98070
20345, -312, -737, -140, -7420, 15890, 87500
20365, -302, -707, -134, 19600, 25130, 64330
20385, -292, -688, -127, 37450, 44450, 30940
20405, -291, -685, -125, 41720, 73150, -3570
20425, -298, -700, -129, 42070, 101010, -30800
20445, -318, -737, -137, 47250, 122010, -49490
20465, -346, -795, -147, 64120, 133560, -62930
20485, -385, -882, -156, 92610, 136010, -74970
20505, -430, -980, -161, 122010, 136290, -88340
20525, -484, -1096, -176, 135450, 145880, -107030
20545, -516, -1186, -190, 133980, 164640, -132930
20565, -517, -1215, -196, 135450, 178710, -155820
20585, -514, -1213, -199, 148680, 176890, -156240
20605, -527, -1224, -202, 171570, 159320, -134470
20625, -562, -1283, -208, 193550, 140420, -117180
20645, -598, -1370, -218, 201740, 134610, -125230
20665, -613, -1441, -233, 203350, 134820, -148330
20685, -588, -1424, -220, 208810, 126700, -161070
20705, -544, -1339, -207, 215950, 107730, -145460
20725, -529, -1254, -201, 209020, 90510, -108780
20745, -513, -1195, -193, 195720, 79450, -83020
20765, -488, -1152, -187, 190260, 70980, -86730
20785, -460, -1120, -173, 190540, 61530, -101430
20805, -437, -1082, -158, 189420, 47390, -99820
20825, -416, -1030, -148, 176330, 34860, -78470
20845, -402, -976, -144, 148610, 31780, -51590
20865, -383, -915, -141, 122150, 30310, -33040
20885, -358, -852, -129, 110530, 23310, -28910
20905, -328, -796, -118, 106890, 15750, -36190
20925, -302, -752, -104, 99470, 11270, -43190
20945, -287, -722, -96, 82390, 10570, -39130
20965, -291, -718, -99, 56350, 12040, -21630
20985, -301, -736, -105, 26460, 15960, -910
21005, -317, -760, -108, 2730, 18410, 13790
21025, -324, -782, -106, -8120, 15680, 19110
21045, -331, -807, -105, -11620, 10010, 18060
21065, -335, -832, -112, -24150, 10710, 14910
21085, -353, -863, -115, -47810, 17220, 16030
21105, -379, -953, -152, -80500, 31080, 23310
21125, -392, -1019, -175, -134400, 73220, 15190
21145, -404, -1045, -186, -149590, 92960, 23730
21165, -431, -1105, -203, -99470, 96460, 91630
21185, -449, -1113, -200, -89390, 131110, 101500
21205, -482, -1163, -225, -103880, 200200, 80430
21225, -493, -1268, -251, -120470, 286020, 37450
21245, -558, -1394, -276, -117460, 352590, 27370
21265, -530, -1307, -259, -84490, 388640, 39830
21285, -564, -1236, -262, -60900, 422310, 64750
21305, -540, -1149, -269, -49070, 470330, 46900
21325, -551, -1129, -282, -28210, 527590, -13300
21345, -546, -1151, -279, 44310, 550480, -68390
21365, -535, -1146, -257, 132230, 552510, -85400
21385, -562, -1132, -266, 178080, 564830, -59500
21405, -561, -1079, -282, 173600, 602630, -35560
21425, -505, -946, -278, 185290, 635460, -39970
21445, -423, -769, -249, 249900, 626990, -27650
21465, -398, -686, -234, 307510, 613760, 16170
21485, -404, -658, -232, 316680, 629720, 69160
21505, -442, -678, -250, 298550, 662410, 113050
21525, -469, -693, -249, 283080, 691950, 133910
21545, -503, -757, -247, 284550, 708330, 134610
21565, -542, -835, -237, 291270, 714070, 126770
21585, -598, -928, -221, 286510, 714420, 111790
21605, -639, -1018, -238, 255990, 724570, 71610
21625, -610, -998, -223, 223370, 730240, 7770
21645, -604, -1033, -209, 226450, 703150, -50540
21665, -602, -1105, -187, 256340, 644280, -79240
21685, -631, -1197, -175, 283780, 573300, -83720
21705, -616, -1183, -165, 260680, 523320, -80010
21725, -597, -1147, -198, 219590, 481810, -91910
21745, -478, -954, -149, 221480, 413210, -114310
21765, -445, -925, -126, 268940, 325640, -139650
21785, -497, -1043, -105, 310520, 232750, -138670
21805, -582, -1310, -107, 308630, 155960, -119350
21825, -590, -1343, -105, 236320, 112420, -116480
21845, -589, -1235, -147, 142520, 55580, -99400
21865, -457, -931, -85, 99260, -54040, -77700
21885, -372, -740, -2, 111860, -185500, -78400
21905, -382, -651, -15, 86660, -282870, -109060
21925, -387, -590, -37, -18410, -338170, -134820
21945, -424, -775, -128, -145740, -376390, -166390
21965, -614, -948, -214, -226240, -464170, -169260
21985, -650, -1005, -229, -254590, -596540, -85960
22005, -579, -767, -212, -247800, -741650, -16450
22025, -591, -723, -286, -276220, -843430, 17780
22045, -751, -871, -394, -378350, -871430, 9730
22065, -901, -1043, -460, -235130, -995470, -24850
22085, -922, -1014, -388, -77770, -1152620, -147280
22105, -943, -1059, -377, -165830, -1166270, -302610
22125, -1013, -1021, -492, -402010, -1101730, -381500
22145, -971, -739, -504, -490560, -1143170, -413700
22165, -734, -344, -424, -547470, -1169350, -493850
22185, -536, -194, -443, -716450, -1092420, -542150
22205, -607, -502, -605, -826000, -1022140, -451220
22225, -541, -572, -561, -665210, -1095360, -245420
22245, -356, -595, -448, -376950, -1161230, -63490
22265, -406, -906, -474, -287980, -945910, -9380
22285, -463, -1108, -522, -247240, -580230, -91840
22305, -305, -986, -479, -32830, -255220, -307790
22325, -433, -1200, -520, 185570, 84770, -450660
22345, -557, -1242, -514, 355950, 414750, -429100
22365, -675, -1248, -536, 537250, 633080, -309470
22385, -690, -1055, -490, 680610, 759500, -166460
22405, -582, -714, -379, 751590, 830060, -9450
22425, -603, -518, -251, 762930, 855260, 148400
22445, -618, -449, -190, 684950, 867510, 272090
22465, -768, -758, -148, 550270, 851480, 282870
22485, -739, -784, -187, 404950, 809340, 168630
22505, -727, -720, -68, 337960, 717500, -60270
22525, -550, -706, 11, 333900, 578900, -281890
22545, -551, -834, 50, 263270, 434210, -459760
22565, -762, -996, 76, 179690, 191870, -462210
22585, -891, -951, -22, 45780, -140210, -412650
22605, -660, -679, -1002, -123760, -564900, -412230
22625, -136, -655, -606, -269080, -965090, -370930
22645, -382, -1080, -287, -254450, -828940, -143780
22665, -415, -902, -60, -246330, -194390, 81410
22685, -401, -877, -83, -147560, 6720, 146580
22705, -517, -1070, -133, -60760, -39620, 200270
22725, -476, -1008, -170, 16520, -93450, 241500
22745, -402, -913, -171, 102200, -157290, 212520
22765, -387, -898, -203, 165270, -193340, 154000
22785, -395, -900, -210, 185500, -167440, 91070
22805, -472, -913, -147, 162470, -69300, 19320
22825, -504, -919, -105, 131250, 26670, -45220
22845, -488, -903, -85, 73570, 72870, -125580
22865, -434, -759, -38, 4200, 57120, -204540
22885, -597, -859, -109, -57540, 21420, -252420
22905, -655, -880, -26, -105910, 11620, -222390
22925, -462, -909, -78, -130480, 11760, -109270
22945, -320, -882, -97, -73780, -35910, 91280
22965, -442, -964, -81, -17010, 28000, 145460
22985, -452, -950, -68, 12740, 37730, 156450
23005, -447, -953, -101, 25760, -4270, 127260
23025, -433, -938, -132, 31360, -45290, 82880
23045, -418, -909, -133, 33740, -58730, 28070
23065, -405, -906, -157, 27650, -49350, -28000
23085, -424, -921, -147, 16240, -16450, -76020
23105, -429, -924, -131, 6300, 22190, -109340
23125, -443, -934, -113, 4970, 39690, -124740
23145, -434, -814, -66, 7630, 38990, -123340
23165, -497, -868, -79, 770, 22610, -89390
23185, -434, -878, -99, -8540, 4690, -30520
23205, -405, -891, -72, -9100, -4480, 27020
23225, -399, -920, -96, -7210, -13440, 59500
23245, -414, -959, -116, -8470, -27860, 73500
23265, -387, -906, -109, -7770, -27020, 73010
23285, -406, -943, -119, -5950, -18340, 56210
23305, -413, -952, -105, -5320, -5460, 36260
23325, -405, -931, -99, -5320, 3780, 11340
23345, -420, -929, -89, -9940, 7350, -9590
23365, -420, -926, -95, -7210, 12670, -26530
23385, -430, -922, -102, 4480, 10500, -39340
23405, -426, -907, -112, 19670, 7980, -43680
23425, -407, -891, -110, 27580, -2100, -41300
23445, -391, -898, -132, 20510, -14840, -31710
23465, -409, -902, -98, 4270, -14420, -11410
23485, -399, -910, -99, -8960, -1330, 10570
23505, -392, -922, -93, -18130, -3220, 22330
23525, -401, -950, -91, -18830, -3780, 27370
23545, -416, -943, -92, -14980, -70, 30170
23565, -410, -950, -106, -5390, 2450, 28280
23585, -396, -935, -113, 1750, -2870, 14070
23605, -423, -949, -103, 5740, 350, -2520
23625, -423, -935, -100, 5670, 12040, -17360
23645, -437, -923, -87, -420, 14070, -29540
23665, -412, -884, -79, -7910, 18760, -34790
23685, -410, -877, -68, -13650, 15610, -35560
23705, -419, -906, -77, -13090, 14700, -27860
23725, -424, -946, -102, -3920, 7980, -16310
23745, -413, -924, -113, 9660, -4480, -1190
23765, -389, -899, -127, 20230, -16100, 17220
23785, -385, -908, -146, 20650, -26950, 29260
23805, -411, -948, -140, 15190, -27300, 33880
23825, -395, -934, -132, 12600, -16520, 29470
23845, -388, -913, -117, -3150, -700, 12600
23865, -391, -913, -101, -17780, 7910, 4410
23885, -395, -908, -78, -26040, 17220, -4200
23905, -417, -938, -80, -27440, 22610, -9870
23925, -425, -952, -77, -15400, 19530, -14350
23945, -417, -921, -88, 2100, 11830, -14770
23965, -425, -926, -95, 11760, 3850, -10780
23985, -415, -929, -111, 10640, -2310, -7140
24005, -437, -963, -111, 4340, -1960, -3920
24025, -422, -932, -104, -1050, 490, 420
24045, -421, -934, -90, -9380, 140, 3780
24065, -417, -929, -81, -14770, 3150, 7280
24085, -413, -927, -76, -13720, 1540, 8050
24105, -407, -913, -83, -6720, 420, 5110
24125, -396, -890, -99, 2310, -4340, -770
24145, -412, -907, -109, 9450, -3990, -5530
24165, -402, -890, -118, 13650, -3570, -8190
24185, -407, -904, -127, 15890, -7140, -10360
24205, -410, -903, -123, 15890, -4970, -11690
24225, -420, -926, -119, 9590, 1050, -11970
24245, -419, -920, -113, -2240, 5670, -10150
24265, -404, -900, -120, -11060, 2030, -7140
24285, -410, -918, -121, -12320, -2520, -3850
24305, -408, -941, -139, -6370, -3920, 1330
24325, -402, -933, -139, 280, -6650, 6300
24345, -390, -898, -133, 3220, -5670, 8750
24365, -393, -909, -124, -2170, -1260, 5180
24385, -416, -945, -101, -14000, 9660, -4200
24405, -426, -943, -77, -26950, 22750, -13020
24425, -424, -938, -63, -38780, 25900, -18690
24445, -424, -941, -62, -43750, 22540, -22750
24465, -433, -959, -67, -36610, 17990, -24780
24485, -428, -946, -80, -15960, 12460, -22960
24505, -435, -960, -109, 10010, 1960, -15680
24525, -419, -941, -125, 27790, -10150, -3150
24545, -406, -939, -152, 34720, -23380, 7700
24565, -401, -913, -139, 33040, -30240, 16170
24585, -389, -904, -136, 29680, -24010, 19320
24605, -395, -920, -117, 15750, -14420, 17570
24625, -406, -941, -108, -8540, -280, 13720
24645, -405, -923, -92, -29050, 8470, 10640
24665, -400, -918, -96, -32830, 8890, 7910
24685, -399, -917, -99, -19810, 1120, 2100
24705, -399, -921, -117, -2590, -4270, -3080
24725, -397, -931, -134, 21350, -12810, -2100
24745, -387, -914, -149, 23800, -18410, 1470
24765, -386, -913, -152, 19880, -20090, 4550
24785, -389, -910, -138, 9170, -9310, 5110
24805, -388, -913, -125, -8330, 5180, 4760
24825, -403, -934, -106, -24430, 15400, 2450
24845, -406, -929, -88, -31220, 21630, 210
24865, -411, -937, -79, -30030, 18620, -2380
24885, -407, -933, -88, -18550, 8750, -5460
24905, -416, -950, -99, -1820, 770, -5320
24925, -419, -952, -119, 15540, -6790, -2310
24945, -404, -927, -133, 24780, -15470, 420
24965, -394, -919, -147, 25270, -20510, 280
24985, -398, -921, -145, 18970, -13160, -560
25005, -401, -918, -127, 5740, 140, -2240
25025, -408, -920, -108, -11480, 9450, -5460
25045, -405, -918, -99, -24290, 13300, -8120
25065, -409, -920, -86, -27790, 12320, -9450
25085, -414, -931, -88, -19320, 10850, -8610
25105, -414, -933, -98, -5950, 3710, -6090
25125, -412, -935, -118, 7770, -3290, -2030
25145, -413, -941, -131, 18130, -8890, 2030
25165, -397, -916, -138, 22190, -14490, 5110
25185, -386, -891, -144, 18130, -17780, 6160
25205, -390, -895, -137, 9100, -11620, 5880
25225, -397, -916, -128, -910, -910, 2240
25245, -401, -921, -118, -9870, 5740, -1400
25265, -400, -916, -105, -16450, 8610, -3220
25285, -406, -921, -98, -17290, 9730, -4620
25305, -412, -942, -103, -12390, 7560, -5880
25325, -402, -916, -116, -4550, 2310, -5040
25345, -405, -919, -119, 2660, -2660, -630
25365, -404, -927, -125, 5740, -3570, 2240
25385, -414, -942, -115, 3080, -1820, 910
25405, -412, -924, -103, -3080, 3710, -980
25425, -419, -929, -90, -8470, 6160, -3430
25445, -419, -939, -85, -13020, 7490, -6580
25465, -425, -969, -87, -18620, 7910, -8680
25485, -424, -964, -82, -19180, 7140, -7420
25505, -411, -950, -115, -9940, 1260, -2380
25525, -403, -922, -133, 4200, -12390, 5460
25545, -398, -916, -156, 21840, -23380, 11130
25565, -387, -907, -179, 38150, -31430, 10150
25585, -383, -882, -173, 47530, -37170, 5460
25605, -397, -858, -137, 48370, -24150, -2520
25625, -409, -885, -108, -11480, 26880, -24430
25645, -390, -874, -91, -68250, 44940, -40670
25665, -418, -952, -67, -119000, 78960, -52990
25685, -442, -988, -48, -155890, 116340, -57470
25705, -475, -986, -29, -159740, 115150, -62160
25725, -459, -956, -26, -134960, 78610, -76300
25745, -429, -918, -38, -87850, 30100, -93730
25765, -435, -901, -19, -28840, 8120, -97650
25785, -426, -860, -1, 6510, 4970, -92470
25805, -412, -835, 5, 9030, -2800, -93030
25825, -500, -1081, -47, 20650, 6790, -94850
25845, -485, -1254, -119, 86730, -24360, -77350
25865, -566, -1365, -102, 198240, -112630, -13090
25885, -623, -1411, -97, 235760, -236810, 96320
25905, -621, -1391, -173, 168000, -331940, 154280
25925, -427, -1083, -130, 26880, -329280, 126630
25945, -426, -1101, -162, -79100, -256270, 102200
25965, -469, -1121, -159, -126280, -176960, 126070
25985, -427, -1057, -98, -101220, -101010, 110460
26005, -493, -1179, -83, -63560, -30170, 63350
26025, -559, -1213, -62, -37100, 11550, 43260
26045, -575, -1179, -50, -6020, 5180, 28630
26065, -499, -1121, -142, 35350, -63490, 6020
26085, -478, -1092, -155, 83370, -141610, -17780
26105, -432, -1041, -131, 124880, -160930, -32060
26125, -400, -985, -142, 130620, -153230, -36330
26145, -378, -949, -139, 113260, -137060, -18830
26165, -359, -873, -120, 99820, -113890, 5740
26185, -324, -806, -105, 91560, -91770, 25410
26205, -314, -754, -96, 78050, -70700, 36680
26225, -298, -710, -76, 59150, -51590, 51380
26245, -286, -644, -46, 40880, -41370, 65240
26265, -280, -632, -48, 25340, -42700, 75530
26285, -256, -624, -58, 9450, -54670, 73010
26305, -264, -662, -92, 3010, -69930, 59570
26325, -248, -629, -81, 3500, -71540, 56350
26345, -228, -539, -88, 8190, -51870, 49140
26365, -181, -461, -76, 16870, -29330, 39340
26385, -129, -488, -113, 44030, -10850, 28140
26405, -79, -348, -142, 80990, 12670, 30730
26425, -68, -281, -173, 164920, 21280, 90580
26445, -65, -223, -174, 285670, 34230, 156800
26465, -96, -181, -130, 391930, 71050, 196560
26485, -160, -200, -92, 507010, 113260, 216650
26505, -271, -334, -110, 524370, 210070, 199850
26525, -549, -680, -168, 273280, 566020, 29120
26545, -853, -1191, -389, 99960, 796040, -162260
26565, -932, -1454, -522, 125930, 934920, -412650
26585, -202, -966, -263, 450870, 823200, -447720
26605, -448, -936, -245, 518490, 709940, -32970
26625, -830, -1108, -461, 278880, 786380, 360780
26645, -833, -1114, -510, 251090, 784350, 364980
26665, -762, -1074, -500, 473690, 689920, 147210
26685, -613, -1234, -346, 742630, 566440, -1820
26705, -723, -1614, -96, 833770, 462700, 72030
26725, -1105, -1998, -467, 445690, 608300, 223580
26745, -821, -1941, -455, 24920, 791700, 207620
26765, -720, -1597, -284, 208040, 521780, 338520
26785, -832, -1641, -142, 460110, 210280, 552440
26805, -1000, -1913, -257, 330400, 253260, 508060
26825, -910, -1998, -386, -40880, 485380, 262150
26845, -573, -1635, -193, -79730, 456260, 99750
26865, -524, -1282, -52, 127610, 175630, 242760
26885, -707, -1341, -158, 91630, 65940, 457590
26905, -907, -1683, -299, -134050, 137760, 477540
26925, -911, -1929, -358, -277830, 215250, 279090
26945, -669, -1705, -244, -198030, 152670, 42280
26965, -431, -1315, -78, 10710, -54320, 16940
26985, -556, -1294, -147, 21070, -156800, 155680
27005, -721, -1438, -279, -212310, -75460, 279860
27025, -746, -1469, -304, -335790, -47460, 297920
27045, -636, -1331, -252, -248780, -121100, 190540
27065, -446, -1057, -159, -110110, -206710, 45290
27085, -293, -792, -91, -33250, -269080, -18410
27105, -302, -723, -121, -78120, -261450, 11970
27125, -335, -708, -154, -178500, -212660, 81760
27145, -340, -664, -153, -204750, -210140, 131740
27165, -303, -575, -127, -153370, -232750, 118860
27185, -249, -470, -102, -94990, -237020, 45080
27205, -208, -396, -82, -76790, -203910, -56420
27225, -169, -339, -69, -88830, -150850, -151270
27245, -142, -303, -55, -104650, -105140, -213710
27265, -151, -329, -47, -122150, -65520, -245700
27285, -191, -430, -65, -142100, -27650, -254450
27305, -335, -760, -108, -147420, -10360, -244440
27325, -733, -1776, -225, -132650, -9380, -225190
27345, -1389, -1998, -399, -114520, -6230, -221060
27365, -1074, -1998, -369, -157430, 46900, -255570
27385, -635, -1429, -190, -247380, 71260, -269290
27405, -533, -1135, -141, -190540, -70770, -188020
27425, -646, -1439, -152, -221410, -41720, -233940
27445, -1018, -1998, -288, -275870, -3150, -280210
27465, -1208, -1998, -477, -375830, 63700, -325220
27485, -782, -1964, -215, -287770, -46480, -265930
27505, -674, -1498, -180, -247450, -164990, -115570
27525, -698, -1550, -228, -378350, -101150, -113750
27545, -801, -1883, -275, -425950, -67900, -177940
27565, -920, -1998, -343, -398370, -108150, -183610
27585, -647, -1624, -208, -337470, -182280, -149170
27605, -530, -1252, -186, -333620, -233100, -67690
27625, -536, -1122, -227, -416220, -223300, 35770
27645, -542, -1105, -249, -448840, -213780, 55930
27665, -485, -1051, -222, -396200, -231420, 16730
27685, -426, -950, -187, -304150, -278110, -8190
27705, -360, -833, -175, -249900, -310450, 6230
27725, -319, -731, -163, -248500, -302680, 37590
27745, -294, -638, -152, -252420, -284620, 75320
27765, -279, -569, -144, -230650, -285530, 112840
27785, -256, -503, -135, -192990, -291480, 131040
27805, -223, -442, -127, -157710, -280630, 111580
27825, -188, -386, -119, -129850, -247730, 61180
27845, -163, -343, -109, -108780, -198730, -1400
27865, -133, -297, -95, -87220, -150500, -59290
27885, -120, -275, -86, -63280, -112910, -100940
27905, -116, -267, -85, -41230, -80990, -124600
27925, -129, -290, -91, -20440, -52780, -137760
27945, -164, -345, -109, 2380, -26320, -148680
27965, -236, -459, -131, 36260, -3080, -165200
27985, -349, -679, -151, 86590, 14700, -192430
28005, -588, -1297, -212, 139650, 35350, -236530
28025, -1027, -1998, -331, 158340, 83020, -299390
28045, -923, -1998, -427, 99890, 184940, -352800
28065, -623, -1412, -298, 27720, 245560, -295260
28085, -522, -1015, -256, 112210, 173740, -161700
28105, -588, -1091, -270, 207200, 148960, -160160
28125, -775, -1614, -321, 262080, 186830, -253470
28145, -1023, -1998, -400, 310030, 221130, -350770
28165, -928, -1998, -481, 293580, 278180, -378770
28185, -823, -1796, -416, 234570, 313320, -254590
28205, -758, -1523, -381, 321930, 215460, -60970
28225, -769, -1754, -337, 412440, 187740, -91840
28245, -867, -1998, -346, 456190, 215810, -209580
28265, -771, -1996, -362, 418390, 250320, -210840
28285, -724, -1662, -346, 325990, 279860, -98560
28305, -684, -1446, -310, 409640, 145180, 112210
28325, -592, -1360, -223, 461090, 126840, 32830
28345, -543, -1357, -203, 393120, 174300, -12880
28365, -504, -1233, -219, 276500, 225190, 39130
28385, -424, -994, -198, 230300, 226800, 118930
28405, -358, -798, -172, 243250, 203700, 180810
28425, -326, -674, -154, 265090, 188440, 209790
28445, -310, -604, -136, 275520, 195020, 195720
28465, -285, -550, -123, 260680, 230090, 149380
28485, -269, -514, -119, 219450, 285390, 95410
28505, -264, -500, -119, 164500, 349090, 53060
28525, -250, -485, -122, 132650, 384930, 34230
28545, -249, -472, -114, 130550, 388990, 38430
28565, -265, -485, -119, 140420, 379540, 55510
28585, -296, -523, -127, 149450, 370510, 60200
28605, -334, -575, -140, 162890, 364000, 36260
28625, -377, -629, -153, 197190, 346500, -11900
28645, -418, -698, -168, 247940, 321790, -82390
28665, -448, -802, -178, 298340, 298760, -164780
28685, -485, -1003, -185, 332990, 280840, -230020
28705, -583, -1391, -214, 339780, 264320, -244790
28725, -763, -1896, -307, 310240, 247240, -194670
28745, -864, -1998, -346, 276430, 211470, -106470
28765, -812, -1765, -312, 308280, 120890, -35280
28785, -744, -1639, -278, 362040, 19670, -41300
28805, -791, -1865, -282, 361970, -27020, -115780
28825, -956, -1998, -358, 319200, -58170, -157640
28845, -1051, -1998, -406, 274050, -113050, -136990
28865, -987, -1998, -347, 266980, -206920, -99890
28885, -889, -1948, -341, 251790, -290430, -98700
28905, -845, -1856, -326, 182070, -309750, -175700
28925, -859, -1878, -332, 140560, -345450, -234150
28945, -833, -1787, -325, 111650, -397250, -245210
28965, -743, -1535, -274, 66010, -432600, -250460
28985, -652, -1283, -248, 5740, -450520, -265020
29005, -583, -1109, -232, -79240, -440580, -288960
29025, -520, -967, -205, -138600, -439320, -308210
29045, -456, -844, -185, -164150, -460110, -311640
29065, -394, -726, -172, -196420, -478940, -298340
29085, -349, -621, -169, -242130, -486430, -267540
29105, -318, -533, -166, -284270, -489160, -223300
29125, -298, -459, -160, -305620, -501060, -173530
29145, -281, -405, -158, -312200, -513450, -130970
29165, -270, -372, -163, -310380, -523810, -103110
29185, -259, -348, -162, -301770, -531650, -89250
29205, -257, -337, -164, -260470, -539630, -97650
29225, -254, -339, -165, -237720, -532910, -119490
29245, -268, -368, -170, -214130, -521150, -151200
29265, -288, -411, -177, -186200, -508060, -187950
29285, -323, -492, -183, -154630, -494970, -229110
29305, -379, -654, -191, -131040, -474670, -273490
29325, -465, -937, -206, -125300, -442890, -313390
29345, -583, -1371, -240, -144060, -396550, -332710
29365, -644, -1621, -266, -183890, -344750, -308070
29385, -614, -1410, -254, -224560, -306250, -232960
29405, -517, -1107, -208, -235410, -275590, -193270
29425, -446, -986, -178, -240240, -219310, -236740
29445, -480, -1140, -191, -253820, -148400, -287070
29465, -641, -1622, -252, -245770, -104300, -299600
29485, -818, -1998, -314, -223020, -75250, -275030
29505, -884, -1998, -316, -219660, -44800, -214690
29525, -747, -1827, -264, -231630, -16380, -163100
29545, -625, -1548, -272, -273840, 53550, -192150
29565, -605, -1547, -265, -283150, 121240, -230720
29585, -619, -1635, -257, -196700, 111370, -210210
29605, -707, -1792, -275, -132230, 106260, -157430
29625, -691, -1688, -264, -127540, 145530, -119840
29645, -588, -1436, -268, -137130, 202650, -133840
29665, -490, -1223, -252, -151410, 280000, -183540
29685, -421, -1075, -223, -93100, 305620, -193130
29705, -408, -1011, -219, 2100, 287630, -145250
29725, -424, -1004, -235, 46620, 306740, -97160
29745, -436, -986, -250, 60760, 360080, -77000
29765, -422, -916, -258, 95830, 402920, -68880
29785, -370, -783, -238, 152950, 435190, -64470
29805, -311, -628, -210, 213500, 463960, -51520
29825, -269, -501, -197, 256340, 489510, -13790
29845, -273, -430, -195, 266000, 528220, 37870
29865, -263, -368, -198, 252910, 580090, 87290
29885, -275, -339, -203, 241080, 626640, 121240
29905, -295, -334, -207, 231630, 669130, 150150
29925, -335, -365, -216, 225540, 703150, 176050
29945, -388, -429, -230, 218540, 733180, 190470
29965, -487, -565, -248, 217280, 756560, 182770
29985, -654, -852, -297, 229670, 772380, 147000
30005, -901, -1309, -375, 267330, 774410, 68880
30025, -1038, -1776, -374, 336140, 770490, -61110
30045, -861, -1719, -306, 420490, 765310, -224420
30065, -672, -1316, -312, 429940, 773500, -306250
30085, -610, -1091, -313, 308910, 734650, -39060
30105, -647, -1150, -327, 387100, 620060, 63280
30125, -788, -1467, -357, 515550, 479360, 96670
30145, -943, -1860, -316, 614390, 366730, 59920
30165, -815, -1833, -206, 562240, 348460, -21560
30185, -634, -1531, -213, 343980, 400190, -19040
30205, -595, -1337, -211, 224420, 335510, 124950
30225, -635, -1342, -190, 279300, 153580, 264390
30245, -720, -1480, -170, 335930, 10290, 280840
30265, -732, -1569, -168, 283710, -27650, 172830
30285, -605, -1447, -154, 151760, -6510, 31150
30305, -525, -1277, -156, 48300, -40810, 2870
30325, -528, -1136, -158, 37590, -170940, 102060
30345, -518, -1024, -132, 81270, -316750, 177380
30365, -489, -930, -112, 78330, -384090, 140980
30385, -468, -874, -119, -15050, -366310, 38220
30405, -468, -863, -150, -127470, -334390, -61880
30425, -465, -839, -169, -168700, -361970, -119420
30445, -455, -781, -169, -136290, -454230, -127960
30465, -432, -698, -156, -96950, -558600, -111440
30485, -376, -593, -137, -107590, -622580, -104370
30505, -349, -530, -133, -178220, -627620, -105630
30525, -348, -502, -156, -277900, -602000, -90300
30545, -393, -528, -191, -350910, -597380, -52430
30565, -438, -573, -218, -376740, -617050, -18970
30585, -474, -625, -243, -356650, -654850, -17500
30605, -491, -670, -259, -310940, -697690, -48510
30625, -505, -731, -270, -261100, -735070, -93520
30645, -532, -856, -291, -227920, -759500, -127820
30665, -600, -1011, -322, -212660, -775600, -129640
30685, -659, -1100, -333, -193340, -796390, -97230
30705, -648, -1079, -322, -166530, -810040, -79100
30725, -610, -1033, -310, -173040, -774270, -123550
30745, -576, -1009, -308, -212030, -697620, -203140
30765, -567, -1046, -305, -236740, -629580, -266630
30785, -582, -1115, -300, -229740, -587020, -295680
30805, -567, -1186, -268, -205520, -555660, -302820
30825, -554, -1288, -247, -184940, -523390, -302050
30845, -611, -1419, -260, -200970, -475090, -271180
30865, -625, -1419, -280, -258790, -401380, -206570
30885, -529, -1261, -259, -307020, -314930, -178010
30905, -470, -1166, -236, -299110, -245910, -195440
30925, -458, -1196, -224, -253050, -204680, -190540
30945, -475, -1288, -229, -210910, -164920, -160230
30965, -522, -1367, -246, -183750, -116130, -117670
30985, -517, -1307, -251, -165130, 11970, -37240
31005, -454, -1170, -234, -139230, 81410, -51870
31025, -397, -1048, -224, -107310, 146510, -62090
31045, -378, -989, -226, -70210, 202440, -48300
31065, -372, -950, -224, -22120, 247520, -21840
31085, -381, -933, -231, 25970, 287280, 9450
31105, -410, -935, -244, 64120, 336560, 29540
31125, -406, -892, -247, 102900, 389690, 29400
31145, -397, -848, -248, 145180, 439110, 23660
31165, -395, -811, -247, 180950, 487690, 29260
31185, -395, -773, -246, 207480, 532910, 50610
31205, -403, -739, -248, 226940, 571760, 82600
31225, -424, -723, -254, 235900, 607880, 119000
31245, -449, -719, -261, 239330, 641620, 144760
31265, -458, -714, -261, 250810, 666820, 150010
31285, -470, -721, -257, 274330, 681450, 141820
31305, -490, -739, -253, 290430, 697550, 130060
31325, -516, -771, -252, 289450, 719740, 114870
31345, -540, -807, -256, 276360, 744030, 93870
31365, -554, -837, -258, 263480, 761600, 66570
31385, -552, -855, -249, 263900, 764890, 39970
31405, -555, -881, -243, 277690, 751030, 25690
31425, -588, -953, -244, 288680, 729750, 24500
31445, -631, -1069, -256, 291620, 707840, 23100
31465, -655, -1141, -261, 296940, 682150, 9590
31485, -627, -1152, -242, 312690, 647430, -16170
31505, -611, -1181, -222, 336350, 597870, -31220
31525, -621, -1250, -214, 347130, 540120, -15890
31545, -606, -1253, -196, 330400, 489440, 11830
31565, -550, -1155, -173, 300720, 442960, 31500
31585, -501, -1060, -149, 272300, 390110, 45360
31605, -493, -1063, -140, 252910, 322420, 63770
31625, -540, -1187, -138, 243600, 241290, 84770
31645, -602, -1336, -134, 228900, 165620, 93730
31665, -609, -1390, -144, 187880, 106540, 82740
31685, -562, -1280, -133, 124810, 56210, 60690
31705, -509, -1136, -122, 71820, -4620, 48860
31725, -476, -1039, -118, 39410, -81830, 52780
31745, -485, -1012, -123, 16940, -161210, 56140
31765, -523, -1055, -134, -5040, -231910, 47040
31785, -562, -1143, -164, -33390, -288820, 21490
31805, -593, -1198, -186, -67760, -335440, -18760
31825, -560, -1101, -178, -89600, -390880, -53410
31845, -488, -906, -167, -103950, -452410, -73080
31865, -436, -743, -163, -138530, -497210, -83580
31885, -412, -634, -168, -223370, -551740, -92680
31905, -401, -584, -169, -246610, -573230, -110460
31925, -409, -585, -180, -269640, -588910, -136640
31945, -432, -625, -198, -291200, -604240, -157920
31965, -463, -688, -220, -303030, -624400, -168910
31985, -484, -745, -239, -302540, -650440, -168700
32005, -483, -762, -246, -295400, -678930, -152950
32025, -471, -741, -244, -288470, -704340, -121100
32045, -457, -713, -242, -294560, -711620, -87290
32065, -459, -702, -252, -309400, -700280, -64120
32085, -460, -699, -256, -311570, -686560, -57610
32105, -457, -708, -259, -295680, -672770, -74200
32125, -458, -732, -260, -272720, -653800, -110110
32145, -453, -763, -257, -248920, -630700, -150500
32165, -442, -796, -252, -223160, -609210, -180810
32185, -428, -831, -245, -203350, -583590, -193060
32205, -417, -864, -233, -195230, -550620, -184310
32225, -410, -884, -222, -196490, -509810, -157990
32245, -415, -897, -219, -204960, -461020, -128590
32265, -404, -890, -216, -217700, -398510, -116690
32285, -380, -873, -206, -218260, -332290, -130410
32305, -362, -879, -199, -199360, -275030, -149520
32325, -363, -937, -198, -168420, -229600, -149100
32345, -374, -1002, -194, -135870, -190120, -126770
32365, -402, -1083, -195, -112980, -144410, -91980
32385, -457, -1178, -211, -106960, -89040, -51380
32405, -487, -1225, -225, -107800, -27790, -22540
32425, -466, -1191, -224, -98000, 34020, -24990
32445, -437, -1134, -217, -72030, 89530, -41860
32465, -427, -1104, -208, -36400, 132720, -39900
32485, -441, -1109, -214, -2240, 169540, -18480
32505, -479, -1154, -233, 13720, 215110, 3010
32525, -501, -1183, -243, 20370, 270270, 9380
32545, -501, -1169, -235, 53410, 307370, 5670
32565, -489, -1130, -226, 103320, 331030, -770
32585, -474, -1072, -222, 131740, 364350, -2660
32605, -461, -1007, -226, 135730, 406350, 4200
32625, -448, -945, -229, 135030, 443310, 18550
32645, -428, -888, -224, 146930, 468790, 30730
32665, -421, -854, -213, 176470, 479710, 42280
32685, -432, -854, -209, 207830, 483210, 60200
32705, -437, -843, -207, 221830, 492380, 79730
32725, -442, -839, -209, 217210, 511490, 87920
32745, -443, -818, -209, 204680, 535500, 83090
32765, -416, -762, -196, 199920, 555730, 68950
32785, -407, -749, -184, 213220, 546700, 71050
32805, -436, -808, -182, 216930, 537530, 76790
32825, -487, -916, -193, 204680, 535150, 76860
32845, -546, -1046, -207, 190680, 533750, 60900
32865, -559, -1108, -203, 191170, 521640, 33600
32885, -512, -1045, -179, 197050, 497910, 12320
32905, -454, -933, -156, 188790, 474040, 10500
32925, -410, -836, -141, 169330, 449960, 21910
32945, -389, -784, -128, 150500, 423220, 34650
32965, -391, -781, -124, 138530, 391930, 36890
32985, -398, -816, -124, 139020, 352100, 27160
33005, -417, -880, -119, 154490, 301140, 11060
33025, -427, -936, -109, 167650, 250460, -6930
33045, -435, -997, -100, 152810, 217210, -24080
33065, -441, -1034, -108, 105490, 199920, -29260
33085, -436, -1008, -111, 56630, 175560, -17150
33105, -404, -920, -102, 37100, 127890, -840
33125, -377, -855, -90, 41090, 66010, 5810
33145, -381, -850, -86, 42560, 8610, 1890
33165, -411, -898, -94, 26180, -33600, -13160
33185, -469, -989, -83, -4830, -62370, -39900
33205, -498, -1090, -113, -43470, -81550, -79800
33225, -497, -1105, -119, -100240, -94150, -137340
33245, -437, -975, -96, -94080, -179900, -117530
33265, -419, -856, -103, -91420, -283220, -56630
33285, -463, -810, -106, -131250, -350980, 980
33305, -435, -747, -131, -167650, -399000, 5950
33325, -428, -748, -159, -229040, -412370, -59500
33345, -481, -806, -181, -261100, -438410, -93520
33365, -518, -881, -219, -251160, -483910, -108150
33385, -491, -894, -175, -224350, -531720, -144200
33405, -505, -951, -192, -200900, -573020, -172270
33425, -482, -892, -212, -228130, -607670, -132930
33445, -500, -825, -234, -280770, -617890, -66850
33465, -475, -750, -235, -310170, -622930, -20580
33485, -500, -764, -242, -304710, -621180, -37870
33505, -420, -685, -203, -276640, -609000, -103320
33525, -396, -758, -254, -247870, -588630, -178290
33545, -451, -892, -280, -263620, -553980, -198800
33565, -461, -971, -258, -247870, -546770, -160930
33585, -422, -948, -215, -172690, -574630, -109620
33605, -412, -955, -220, -130620, -562170, -91000
33625, -409, -959, -251, -196560, -456820, -90160
33645, -391, -932, -259, -272230, -329490, -88410
33665, -332, -868, -234, -141960, -237860, -85400
33685, -317, -898, -211, -62650, -189280, -84000
33705, -341, -978, -213, -45220, -91560, -71470
33725, -351, -995, -219, -46200, 13860, -44660
33745, -408, -1068, -255, -27580, 100590, -14770
33765, -365, -970, -237, 25480, 163170, 5670
33785, -400, -1001, -243, 90720, 216720, 19250
33805, -405, -970, -250, 122290, 293090, 20370
33825, -399, -965, -265, 147140, 371000, 9940
33845, -284, -741, -251, 150430, 456750, 30380
33865, -408, -835, -266, 190050, 507080, 110180
33885, -473, -894, -235, 295470, 497210, 184730
33905, -518, -904, -147, 362110, 480130, 215390
33925, -568, -1000, -152, 310240, 512540, 200900
33945, -534, -1009, -148, 171920, 571130, 137340
33965, -414, -836, -89, 89250, 559160, 94640
33985, -435, -803, -61, 76230, 446950, 137760
34005, -495, -883, -88, 73920, 307440, 180180
34025, -523, -894, -119, 80220, 177870, 133210
34045, -529, -895, -86, 93100, 95270, -9450
34065, -472, -951, -47, 97160, 37450, -200550
34085, -410, -977, -41, 33180, -9590, -312130
34105, -427, -957, -52, -46970, -102900, -263550
34125, -511, -856, -73, -102900, -252770, -117810
34145, -483, -692, -104, -178500, -366310, -50540
34165, -448, -696, -167, -266560, -435680, -115430
34185, -434, -705, -188, -289240, -552510, -141890
34205, -560, -872, -257, -265720, -692650, -57890
34225, -662, -1043, -322, -272440, -765450, 32130
34245, -604, -997, -316, -243950, -806050, 42980
34265, -470, -858, -259, -200200, -801920, -23590
34285, -545, -888, -306, -222600, -719880, -84910
34305, -420, -679, -271, -273840, -607740, -122710
34325, -122, -589, -297, -224350, -561050, -204820
34345, -383, -932, -209, -156940, -469560, -302190
34365, -409, -1052, -144, -131110, -95830, -188650
34385, -429, -964, -77, -184450, 112350, -1960
34405, -390, -918, -41, -148050, 153020, 42210
34425, -462, -1023, -52, -117670, 137200, 32760
34445, -386, -953, -69, -78050, 63070, 71190
34465, -355, -920, -108, -32690, -14070, 74410
34485, -416, -991, -139, 5040, -61810, 83020
34505, -397, -957, -136, 44940, -75110, 98420
34525, -393, -933, -127, 78750, -67060, 81060
34545, -393, -936, -140, 97090, -57680, 52080
34565, -357, -874, -203, 78470, -4690, -6300
34585, -448, -933, -162, 59150, 47670, -14770
34605, -448, -962, -97, 54250, 107310, -17500
34625, -432, -914, -72, 31710, 96950, -24850
34645, -465, -937, -81, 20580, 65100, -44520
34665, -438, -951, -77, 18550, 17080, -76020
34685, -384, -943, -118, 15960, -27510, -118650
34705, -504, -1068, -125, 33040, -84770, -109270
34725, -399, -860, -20, 49210, -91560, -122990
34745, -347, -931, -17, 46620, -89670, -134960
34765, -266, -779, -293, 29680, -88550, -46130
34785, -600, -910, -145, 2240, 2800, 143430
34805, -642, -1055, -66, -18270, 176470, 281400
34825, -544, -865, 151, 42770, 190120, 271950
34845, -689, -1014, 306, 40880, 97440, 231350
34865, -640, -1224, 53, -54740, -130480, 174720
34885, -509, -903, -123, -113260, -353360, -700
34905, -419, -714, -55, -150710, -363650, -130830
34925, -490, -918, -70, -208180, -304220, -107520
34945, -570, -1110, -242, -318850, -225400, -55650
34965, -222, -793, -108, -380590, -225190, -15540
34985, -148, -941, -207, -324870, -246610, -10080
35005, -522, -1126, -52, -232540, -121450, 20650
35025, -794, 1, -831, -72380, 11270, -11900
35045, -644, -864, 60, 63280, 48930, 33880
35065, -801, -985, -43, 186550, 83230, 312130
35085, -913, -891, 259, 190050, -69370, 294420
35105, -514, -776, 0, 133350, -133490, 234360
35125, -440, -547, 47, 149310, -215950, 219380
35145, -687, -587, 192, 157360, -154140, 184100
35165, -675, -485, 101, 61040, -31640, 122360
35185, -749, -305, 82, 26740, 72100, 85960
35205, -1003, -468, 68, 27300, 201110, 87570
35225, -854, -592, -31, -22960, 310590, 91980
35245, -647, -697, -143, 7490, 287280, 27370
35265, -596, -465, -274, 165760, 119350, -107380
35285, -1431, -643, 316, 362040, -91350, -373100
35305, -632, -728, -211, 319900, 79800, -366730
35325, -443, -604, -210, -1470, 185500, -18480
35345, -712, -481, 120, -73710, 33390, 128940
35365, -1061, -408, 52, -11970, 14210, 209720
35385, -786, -546, -187, -18620, 43470, 207760
35405, -843, -516, -10, -4340, 74550, 104790
35425, -894, -662, -21, 64050, 33320, -1890
35445, -830, -749, -71, -52850, 38150, -7350
35465, -813, -629, -114, -37660, 71190, 30170
35485, -764, -540, -157, -910, 62860, 22470
35505, -775, -484, -159, -5740, 74760, 29120
35525, -857, -288, -159, -11550, 115570, 46900
35545, -992, -483, -196, -30800, 156940, 89530
35565, -922, -504, -302, -52920, 97580, 76650
35585, -795, -486, -297, -34160, -13860, 37310
35605, -808, -292, -296, -20300, -50400, 24640
35625, -878, -382, -180, -16240, -36400, 35980
35645, -954, -496, -132, -29470, -35140, 18690
35665, -843, -531, -183, -40180, -77840, -25690
35685, -809, -523, -125, -20230, -113190, -66080
35705, -787, -455, -142, 11130, -116130, -62580
35725, -932, -419, -112, 1540, -113120, -40250
35745, -1001, -397, -83, -8960, -106400, -14000
35765, -955, -400, -64, -3780, -87010, 10570
35785, -843, -475, -103, 37590, -25200, 1820
35805, -915, -527, -14, 29610, 28140, 8260
35825, -914, -534, 59, 11410, 17640, 29190
35845, -831, -503, 38, -9170, -20300, 24780
35865, -863, -531, -23, -22050, -49490, 1610
35885, -834, -355, -3, -14490, -45850, -15120
35905, -887, -379, -30, -7490, -28420, 7280
35925, -957, -466, 35, -32620, -24570, 22330
35945, -955, -526, 16, -44800, -50260, 15190
35965, -1057, -458, -46, -44730, -82950, -6300
35985, -982, -403, -72, -38220, -93240, -38710
36005, -861, -260, 62, -47880, -122220, -26880
36025, -748, -340, 77, -10500, -128030, 20440
36045, -857, -397, 131, 22400, -72310, 38640
36065, -944, -501, 145, 20860, -3780, 4760
36085, -909, -505, 123, 5530, 35490, 3920
36105, -808, -457, 41, 4830, 26530, 7210
36125, -1054, -638, 368, 20720, -16520, -7700
36145, -873, -696, 221, 35000, -46970, -2870
36165, -626, -667, 40, 30800, -131320, 840
36185, -687, -484, 266, 45430, -183190, -43610
36205, -918, -462, 556, 37030, -165480, -44590
36225, -978, -164, 540, 73710, -196630, 88830
36245, -676, -361, 615, 1890, -270200, 135660
36265, -505, -337, 430, -17780, -275170, 58590
36285, -1375, -134, 358, -21630, -174090, -25970
36305, -576, -488, 507, 16310, 32480, -44870
36325, -605, -415, 513, -19600, -81060, -29050
36345, -723, -453, 582, 46690, 68180, -16380
36365, -733, -375, 569, 34720, 107380, 21770
36385, -771, -459, 437, 24570, 125790, 16450
36405, -755, -313, 506, 3010, 138110, -6510
36425, -849, -382, 469, 700, 144760, -40530
36445, -890, -483, 473, 2240, 141610, -56700
36465, -892, -482, 443, -3430, 116480, -41230
36485, -808, -388, 354, -4690, 63140, -19250
36505, -829, -387, 353, -7210, 22960, -11760
36525, -838, -426, 264, -16800, 17430, -22050
36545, -954, -509, 373, -4550, 37170, -20160
36565, -867, -493, 336, -7700, 21490, -24150
36585, -850, -395, 292, -12600, -3570, -6790
36605, -916, -405, 269, -5810, -1540, -7350
36625, -874, -500, 357, -7070, -32480, -36190
36645, -785, -430, 352, 2870, -43400, -22050
36665, -743, -403, 346, 13790, -33600, -2030
36685, -910, -561, 537, 8540, -23310, -8750
36705, -940, -501, 343, -13230, -45710, -18480
36725, -682, -437, 425, -9240, -128380, -18830
36745, -787, -493, 457, -4830, -231000, -19670
36765, -882, -469, 534, 10570, -161840, -2030
36785, -650, -669, 612, 14210, -167720, 10360
36805, -754, -325, 824, 84490, -259210, 4690
36825, -592, -404, 761, 129290, -284550, -12390
36845, -363, -275, 677, 83860, -332920, -7770
36865, -311, -307, 763, 74830, -305200, -1470
36885, -261, -276, 810, 65240, -198800, 6160
36905, -281, -397, 787, 46760, -123410, 7840
36925, -231, -218, 844, 46480, -76440, 16450
36945, -145, -329, 924, 44520, -29260, 5810
36965, -249, -318, 1168, 19110, -3990, 18550
36985, -224, -320, 1086, 11410, -14210, 8470
37005, -224, -300, 921, 5600, -27160, 3430
37025, -12, -276, 784, -37100, 5880, 4830
37045, -323, -469, 1002, -69580, 72590, -25060
37065, -650, -427, 823, -99540, 175280, -19110
37085, -611, -478, 803, -76930, 173530, 17500
37105, -428, -351, 819, -40040, 35070, 26320
37125, -174, -424, 721, -15470, -77560, 20090
37145, -370, -395, 833, 6300, -94500, 140
37165, -400, -336, 870, 18550, -22680, -5600
37185, -365, -346, 946, 29120, -16660, -1960
37205, -306, -383, 985, 31150, -16870, -9030
37225, -310, -378, 942, 20580, -7840, -25620
37245, -239, -385, 788, -17290, -7070, -34090
37265, -335, -359, 873, -5740, 840, -23380
37285, -265, -364, 874, 12320, -6370, 560
37305, -315, -425, 883, 11480, -12110, 9030
37325, -406, -390, 917, 4410, 6580, -6370
37345, -410, -379, 943, 770, 2730, -16590
37365, -298, -414, 891, -1680, -2520, -21210
37385, -225, -280, 795, -3920, -10220, -25410
37405, -231, -225, 758, -3780, 23520, -27370
37425, -417, -1075, 950, -7350, 94360, -12530
37445, -351, -470, 991, -14840, 52920, -13650
37465, -271, -329, 844, 23660, 16730, 21420
37485, -404, -407, 707, -8890, 38710, 15750
37505, -411, -408, 800, -2310, 55370, 7420
37525, -533, -328, 1107, 38990, 30240, 21420
37545, -413, -378, 938, 24430, 11690, 12740
37565, -403, -299, 773, -13370, -27930, -6580
37585, -424, 268, -382, -11690, -38850, -19600
37605, -181, -356, 1072, -21490, -44870, -38220
37625, -387, -434, 1037, 37590, -64680, -15680
37645, -296, -358, 980, 17150, -7560, 350
37665, -363, -413, 971, -4130, -6510, -3780
37685, 10, -195, 594, -8120, -1400, -630
37705, -623, -388, 823, -2730, 34860, 7840
37725, -512, -388, 916, -2590, 126070, 19320
37745, -380, -353, 945, 24080, 34930, 21770
37765, -421, -367, 937, 12180, -15610, 19460
37785, -327, -338, 744, -7980, -20860, 10290
37805, -496, -337, 804, -20090, -28000, -4130
37825, -417, -362, 913, -5670, 6860, -11340
37845, -325, -369, 875, 4200, 8260, -18690
37865, -365, -376, 889, -6300, 7840, -18270
37885, -403, -378, 886, -9240, 9800, -10920
37905, -381, -360, 837, -6860, 490, -1260
37925, -399, -379, 834, -9380, -4620, 0
37945, -425, -357, 841, -8470, 3430, 1540
37965, -387, -382, 832, -4130, 7210, 2800
37985, -450, -375, 879, -630, 6860, 1470
38005, -420, -368, 874, 4480, 11270, 980
38025, -363, -375, 850, 6580, 3850, -2520
38045, -401, -363, 910, 2310, -2310, -6930
38065, -438, -357, 921, 1540, 2450, -2030
38085, -430, -371, 906, 140, -1400, 3010
38105, -470, -314, 805, -5180, -22750, 2240
38125, -325, -352, 750, -12530, -33040, -24640
38145, -341, -717, 1232, -1190, -560, -29540
38165, -464, -421, 1102, 11200, 3220, -19670
38185, -316, -420, 889, 5460, -630, -6160
38205, -232, -403, 680, -70, -7560, -3570
38225, -484, -370, 779, 630, 72450, 4690
38245, -524, -369, 1037, 30800, 63490, 14280
38265, -376, -372, 1029, 15190, 30170, 7140
38285, -327, -351, 607, -33180, -50680, -18200
38305, -315, 69, 160, -24360, -20230, -31080
38325, -286, -421, 893, -13090, -7280, -28420
38345, -363, -475, 1032, 5180, -20370, -15820
38365, -353, -412, 956, 3360, -10920, -9310
38385, -323, -414, 880, -7140, -7700, -6650
38405, -317, -291, 682, -70, 8820, -1050
38425, -396, -366, 797, 2730, 43540, -2240
38445, -416, -365, 922, 17010, 42630, -70
38465, -391, -398, 892, 12600, 34720, -1050
38485, -381, -391, 862, 210, 7000, 70
38505, -442, -376, 765, -8820, -10850, 3920
38525, -465, -396, 836, -8540, -1610, 1120
38545, -413, -404, 856, -1820, 7350, -1120
38565, -381, -399, 859, -2940, 5600, -4970
38585, -392, -388, 856, -3920, 2730, -6440
38605, -402, -377, 856, -1610, 980, -2660
38625, -398, -375, 823, -1540, -1260, 350
38645, -406, -377, 836, -2170, -840, 1890
38665, -442, -398, 852, 560, 2520, 3780
38685, -428, -392, 847, 4200, 4830, 2660
38705, -405, -398, 844, 5320, 5110, -700
38725, -400, -382, 834, 1750, 3920, -3360
38745, -401, -375, 847, 630, 4970, -3500
38765, -402, -392, 839, 560, 7700, -2030
38785, -437, -368, 841, -70, 6720, 1470
38805, -422, -379, 847, 2030, 7700, 5530
38825, -427, -376, 830, 280, 6160, 3640
38845, -464, -381, 858, -770, 5880, 1330
38865, -444, -387, 908, 1050, 10080, 630
38885, -388, -406, 835, -2730, 2100, 700
38905, -502, -358, 904, -13370, -23240, 350
38925, -376, -370, 605, -11830, -32550, 2940
38945, -579, -1191, 1545, -3640, -38290, -1820
38965, -671, -516, 1361, 13440, -20300, -29400
38985, -202, -451, 1067, 56560, -95970, -43120
39005, -252, -426, 1029, 39200, -1820, -24920
39025, -178, -283, 672, -11410, -2310, -4830
39045, -466, -426, 584, -53970, 95200, -12530
39065, -471, -364, 854, 7210, 99680, -8680
39085, -415, -364, 983, 25830, 38080, 7770
39105, -380, -338, 1141, -980, 13160, -3150
39125, -349, -340, 586, -31290, -57260, -6300
39145, -698, -1029, 1338, 2800, -28140, -15190
39165, -535, -533, 1363, 56560, -60270, -22190
39185, -188, -419, 1130, 67200, -31710, -17360
39205, -277, -396, 1053, 4130, -21420, -27090
39225, -313, -305, 912, -24850, -17220, -15190
39245, -370, -309, 564, -32270, 12250, -13650
39265, -453, -424, 785, -42280, 91560, -23030
39285, -354, -390, 910, -3640, 55090, -15190
39305, -394, -416, 994, 11830, 21700, 1120
39325, -345, -385, 851, -2310, 2800, -5880
39345, -421, -385, 781, -19390, -8890, -15120
39365, -411, -414, 803, -17430, 8330, -15750
39385, -387, -409, 860, -1820, 4830, -9310
39405, -328, -407, 848, 1820, 4690, -8750
39425, -362, -394, 869, 1680, 7210, -5180
39445, -394, -392, 838, 2100, 7770, 2030
39465, -340, -394, 830, 2240, 12180, 5740
39485, -415, -395, 877, 5600, 16380, 12460
39505, -451, -393, 856, 12390, 21560, 24850
39525, -457, -413, 850, 7210, 10920, 23170
39545, -445, -384, 847, 4550, 6020, 14070
39565, -408, -393, 819, 1050, 910, 6230
39585, -374, -364, 821, -4410, -3290, 3780
39605, -370, -404, 858, -2240, 1750, 6510
39625, -464, -410, 883, -1610, 10850, 13440
39645, -423, -326, 835, 9730, 18970, 25410
39665, -499, -425, 834, 21630, 19250, 22540
39685, -599, -483, 753, 20370, 34580, 12530
39705, -547, -340, 793, 20160, 58730, 26950
39725, -572, -232, 998, 23030, 50960, 57330
39745, -137, -414, 933, 8260, -11270, 34090
39765, -175, -432, 925, -43960, -172690, -8750
39785, -337, -176, 963, 17150, -124040, -6860
39805, -432, -147, 956, 94640, -12670, 13650
39825, -343, -119, 752, 107870, -53480, 52640
39845, -144, -323, 1083, 89390, -33250, 16170
39865, -496, -189, 1079, 43050, -116900, -39270
39885, -371, -310, 872, 76510, -47740, -25550
39905, -516, -216, 1060, 24570, -5390, -4620
39925, -598, -242, 1307, 76650, 16940, 1050
39945, -386, -400, 1256, 79380, 53620, -14210
39965, -431, -326, 1251, 102970, 156870, -22960
39985, -755, -157, 1279, 93520, 226520, -47880
40005, -333, -238, 986, 21280, 102480, -73850
40025, -540, -27, 992, 7350, 71260, -51310
40045, -580, -34, 950, 3290, 84630, -4900
40065, -500, -54, 859, -18130, 22400, 18690
40085, -491, -38, 819, -15260, -17290, 28630
40105, -632, -1, 802, -9100, -40530, 36680
40125, -795, 107, 653, -20300, -78540, 9590
40145, -532, -85, 762, -1050, -94640, -28210
40165, -358, -88, 881, 36540, -67690, -21560
40185, -316, -81, 875, 49560, -61390, -13860
40205, -440, -56, 882, 48790, -85680, -27440
40225, -438, -36, 859, 65730, -95410, -48650
40245, -379, -48, 687, 64330, -92050, -80430
40265, -276, 124, 793, 87990, -91700, -143360
40285, -230, 173, 902, 94850, -99470, -148120
40305, -184, 13, 858, 64330, -78610, -117110
40325, -242, 322, 844, 42140, -18200, -93870
40345, -204, 43, 801, 3010, 21000, -76860
40365, -238, 50, 958, 7560, -31780, -32340
40385, -254, 45, 985, 18620, -51870, 19460
40405, -244, 29, 863, 30660, -72030, 55090
40425, -225, -353, 691, 34860, -77770, 94920
40445, -406, 356, 1229, 61950, -5810, 86660
40465, -124, 136, 880, 144480, 70280, -6440
40485, -267, 172, 937, 48930, 13090, 13370
40505, -308, 185, 935, 21210, 33250, 39760
40525, -233, 190, 835, 5390, 910, 41720
40545, -190, 180, 938, -7070, -23030, 41300
40565, -216, 160, 977, -4200, -9100, 41930
40585, -219, 141, 1032, -1470, -11480, 22610
40605, -128, 167, 995, 6720, -27510, -2310
40625, -135, 170, 965, 0, -36120, -20160
40645, -244, 178, 996, -8540, -29960, -25410
40665, -194, 173, 1009, -8890, -22680, -27510
40685, -210, 137, 1000, -11550, -31990, -25270
40705, -132, -118, 590, -12880, -28910, -17080
40725, -167, 110, 1475, -56280, -29750, -10080
40745, 13, 324, 1207, 45220, -91490, -13510
40765, -118, 235, 782, 40180, -83160, -32690
40785, -96, 222, 901, -1400, 48160, -26530
40805, -106, 181, 1167, -5810, 1050, -8680
40825, -148, 160, 1206, -2030, -20090, -3290
40845, -74, 176, 1042, -20510, -14560, -1050
40865, -102, 162, 925, -28630, 4270, 140
40885, -122, -206, 936, -34580, 4410, 2240
40905, -8, 195, 1136, -6370, -29400, 1330
40925, -134, 146, 1002, 6510, -8260, -6090
40945, -52, 161, 942, -20090, 21770, -4620
40965, -89, 144, 968, -16940, 4130, -2730
40985, -113, 125, 983, -10990, -5320, 3080
41005, -141, 100, 993, -9870, -4480, 4690
41025, -141, 114, 950, -12390, 3570, 3640
41045, -160, 102, 973, -11620, 4970, 3640
41065, -141, 98, 983, -7770, -1470, 2730
41085, -130, 104, 998, -3570, -4410, 560
41105, -133, 100, 1030, -2030, 2380, -490
41125, -109, 112, 1008, -2240, 2730, -770
41145, -104, 113, 989, -3850, 840, -1260
41165, -114, 113, 1016, -4550, -210, 420
41185, -117, 100, 1036, -4620, -1540, 1750
41205, -126, 97, 1000, -5810, 1890, 280
41225, -106, 96, 985, -6440, -980, -1190
41245, -141, 98, 1025, -3850, -2800, -1820
41265, -110, 106, 1015, -1610, 2730, -1190
41285, -94, 123, 988, -3920, 5600, -2730
41305, -97, 122, 1019, -4900, -420, -3220
41325, -121, 113, 1030, -2660, -9240, -700
41345, -110, 99, 1000, -3850, -9590, 560
41365, -96, 88, 962, -7420, -8400, -1610
41385, -79, 102, 948, -7700, -10920, -3710
41405, -105, 89, 1015, -5950, -14630, -5040
41425, -103, 86, 1024, -5040, -12040, -5390
41445, -107, 79, 998, -5810, -5110, -3640
41465, -124, 73, 963, -6860, 4900, -700
41485, -107, 90, 977, -5460, 3500, -910
41505, -69, 101, 1020, -2380, -3150, -3640
41525, -85, 101, 1035, -70, -4270, -4480
41545, -80, 84, 1023, -1820, -3150, -2660
41565, -89, 82, 1019, -4480, -490, -1260
41585, -89, 81, 1018, -6440, -1190, -770
41605, -105, 70, 1030, -7770, -6370, -1260
41625, -119, 60, 1073, -8190, -10080, -2100
41645, -78, 71, 1048, -7210, -12600, -1890
41665, -52, 69, 582, -9520, -12950, -2450
41685, -128, -34, 858, -11200, -11550, -2660
41705, 42, 95, 1307, 37870, -55580, -7210
41725, -31, 165, 1007, 18550, -13580, -15680
41745, -65, 130, 881, -14910, 57330, -4690
41765, -59, 119, 1110, -4410, 23870, -700
41785, -108, 91, 1183, 4970, -5040, 3220
41805, -114, 78, 1064, -3640, 2170, 4200
41825, -89, 79, 1005, -10640, 13230, 1540
41845, -69, 73, 1010, -9380, 7910, 420
41865, -56, 68, 1012, -6370, -2520, 1750
41885, -58, 65, 999, -5530, -3990, 2590
41905, -56, 55, 988, -7280, -1540, 2170
41925, -76, 55, 969, -7980, 1610, 2100
41945, -71, 63, 971, -6440, -1190, 1890
41965, -83, 56, 1009, -4200, -3430, 700
41985, -92, 49, 1009, -3850, -2380, -420
42005, -78, 52, 990, -5600, 2030, -2030
42025, -82, 63, 988, -6300, 4060, -2870
42045, -94, 60, 1045, -4130, 70, -1610
42065, -106, 60, 1017, -3220, -2940, -980
42085, -81, 59, 1028, -5320, 1820, -1960
42105, -52, 61, 1024, -6440, -560, -3780
42125, -30, 66, 970, -7350, -2170, -3430
42145, -39, 56, 979, -6860, -2100, -1190
42165, -64, 49, 1012, -5110, -1400, -70
42185, -74, 41, 1036, -5600, 2450, -350
42205, -103, 40, 1026, -6650, 1330, -280
42225, -111, 33, 1051, -6790, -4760, -350
42245, -81, 33, 1032, -5180, -10080, -630
