T [ms],AccX [mg],AccY [mg],AccZ [mg],GyroX [mdps],GyroY [mdps],GyroZ [mdps]
924571, -15, -113, 1059, 3850, 2590, 4550
924591, -17, -113, 1014, 3010, -840, 4060
924611, -38, -118, 1029, 9800, -7630, 2240
924631, -27, -109, 978, 14280, -9870, 2310
924651, 11, -92, 970, 16520, -5390, 2940
924671, 24, -89, 1055, 11900, -280, 5320
924691, 10, -83, 1046, 5110, 3570, 7000
924711, -13, -84, 997, 6930, 2520, 3850
924731, -29, -88, 957, 11690, -4200, 770
924751, -26, -88, 1061, 11270, -4480, 280
924771, -43, -86, 1048, 5810, 5040, 1960
924791, -26, -65, 1037, 10080, 6790, 2240
924811, -27, -62, 972, 20370, -1820, 2380
924831, 39, -35, 979, 28840, -13790, 2940
924851, 34, -25, 1103, 31710, -25620, 5460
924871, 20, -16, 1076, 30450, -26530, 4830
924891, 16, 0, 1054, 40110, -32900, 1260
924911, 61, 36, 1091, 52570, -40670, -980
924931, 118, 86, 1105, 64680, -46340, -2870
924951, 150, 134, 1031, 83440, -57050, -3080
924971, 228, 203, 986, 132650, -105210, -4550
924991, 164, 206, 955, 141400, -94010, -11550
925011, 239, 293, 975, 152880, -68180, -30240
925031, 228, 326, 700, 184030, -52640, -46970
925051, 414, 455, 741, 200340, -102480, -33320
925071, 303, 451, 932, 173530, -128240, -43750
925091, -12, 272, 932, 174790, -130620, -85400
925111, 153, 423, 773, 174930, -113190, -96110
925131, 285, 553, 496, 164150, -2450, -95760
925151, 199, 604, 733, 136640, 76090, -88200
925171, 163, 617, 763, 121800, 84140, -70490
925191, 93, 685, 923, 135380, 60340, -44240
925211, 138, 707, 613, 115570, 47040, -35560
925231, 155, 773, 606, 85050, 21630, -32130
925251, 119, 734, 500, 73220, 1680, -27580
925271, 154, 780, 533, 80920, 4900, -25760
925291, 118, 785, 543, 101080, 4900, -21000
925311, 26, 1068, 509, 111370, 14490, -7770
925331, 237, 831, 555, 120750, 68670, 55370
925351, 224, 826, 482, 113820, 67970, 108640
925371, 130, 923, 401, 125160, 4270, 55720
925391, 87, 856, 197, 151970, -14770, 18130
925411, 160, 965, 309, 198170, -7910, 6580
925431, 186, 1031, 256, 217700, 7070, -560
925451, 145, 1054, 194, 193900, 5880, -17850
925471, 162, 977, 5, 173740, -7630, -32760
925491, 175, 987, -3, 167930, -12530, -35070
925511, -107, 1203, -51, 152600, 3080, -43400
925531, 12, 949, -23, 149170, 27090, -77910
925551, 69, 854, -128, 137620, 23730, -65030
925571, 50, 903, -222, 166530, 25900, -40460
925591, 91, 889, -262, 176120, 31080, -34650
925611, 90, 947, -281, 140840, 24640, -36120
925631, 21, 951, -291, 110600, 9030, -38990
925651, 13, 915, -325, 104720, -3360, -32060
925671, -25, 967, -424, 111090, -9170, -14700
925691, 9, 913, -436, 114870, -10920, -1960
925711, 69, 974, -486, 90020, -14280, 6160
925731, 63, 936, -481, 63980, -17570, 29540
925751, 45, 943, -489, 48300, -15680, 40320
925771, 129, 916, -427, 32410, -10010, 53200
925791, 46, 835, -517, 18130, 3220, 77630
925811, 135, 829, -501, 11410, 18550, 66500
925831, -71, 755, -533, -4410, -1190, 10290
925851, 39, 842, -452, 70, 490, 12250
925871, -276, 793, -517, 6860, -13860, -49000
925891, 750, 1082, -634, -6370, -59920, -125790
925911, 85, 940, -363, -7420, -73850, -79800
925931, 83, 881, -483, 22120, -5950, 27020
925951, 33, 852, -479, 28560, 8330, 38920
925971, 84, 851, -555, 47600, 6860, 39270
925991, 270, 832, -603, 71400, -350, 29820
926011, 55, 774, -403, 122080, 9450, 51660
926031, 35, 699, -563, 170590, 20230, 73080
926051, 147, 725, -516, 176330, -11410, 6440
926071, 126, 643, -619, 159250, -25340, -15890
926091, 157, 651, -673, 140490, -12810, -15120
926111, 167, 573, -624, 133490, 490, -2870
926131, 129, 633, -801, 107450, 20650, 24640
926151, 137, 572, -870, 79940, 58380, 54250
926171, 128, 517, -792, 74830, 79450, 72380
926191, 148, 497, -826, 60550, 60270, 93100
926211, 176, 522, -907, 37660, 18550, 87710
926231, 233, 489, -954, 38080, 2030, 77140
926251, 222, 463, -852, 35280, -5950, 67550
926271, 240, 417, -901, 53480, -8050, 57750
926291, 284, 447, -881, 62300, -18130, 36610
926311, 212, 370, -878, 66710, -19460, 27020
926331, 144, 396, -938, 67760, -31640, 9870
926351, 145, 272, -986, 63630, -55020, -24150
926371, 88, 302, -926, 57820, -73150, -51100
926391, 106, 330, -900, 57960, -79730, -56560
926411, 100, 317, -995, 40180, -85960, -60900
926431, 101, 248, -969, 31640, -77490, -51940
926451, 68, 277, -978, 35840, -50400, -38780
926471, 64, 283, -993, 53480, -32830, -34300
926491, 32, 328, -1002, 42700, -30940, -33600
926511, 19, 353, -970, 16450, -29610, -42000
926531, 34, 181, -981, -9870, -27650, -40880
926551, -30, 334, -949, -5460, -20020, -25830
926571, -29, 327, -1009, 18200, -14210, -28420
926591, 32, 324, -949, 20300, -17920, -39760
926611, -7, 285, -943, -2450, -16730, -37450
926631, -38, 64, -1053, -19180, -6510, -34510
926651, 0, 326, -971, -22820, -910, -19880
926671, -32, 297, -1012, 20160, 14210, -30730
926691, -51, 244, -1014, 31780, 10290, -43750
926711, -85, 201, -984, 15050, 7630, -37590
926731, -54, 303, -956, -6440, 3150, -15890
926751, 12, 276, -956, 5040, 6790, -20930
926771, -63, 271, -1001, 8400, 3080, -8400
926791, -51, 266, -1002, 7420, -3850, -7140
926811, -29, 234, -953, 8120, -10010, -13580
926831, -26, 243, -941, 12740, -8540, -21350
926851, -79, 270, -948, 11690, -13720, -31220
926871, -31, 269, -1027, 70, -18760, -45290
926891, -34, 248, -1006, -13090, -15190, -49140
926911, -60, 264, -982, -15890, 420, -36540
926931, -59, 287, -987, -15050, 15190, -24850
926951, -31, 220, -955, -13300, 31360, -2660
926971, -47, 250, -1011, -4410, 28560, -2380
926991, -74, 263, -989, -1400, 24710, -10710
927011, 25, 347, -1254, 9660, 38290, 770
927031, -99, 283, -774, 21350, 61600, 36750
927051, -4, 223, -892, 18130, 50330, 20720
927071, 32, 186, -1064, 3220, 22330, -8400
927091, 41, 222, -1027, 11760, 14140, -19880
927111, -20, 217, -979, 19320, 20160, -22540
927131, -12, 194, -1001, 16170, 17010, -21910
927151, 112, 218, -970, 8680, 10850, -23940
927171, 106, 262, -955, 8470, 6090, -24570
927191, 57, 204, -914, 23170, 10570, -24080
927211, 87, 186, -869, 23870, 18900, -22540
927231, 121, 149, -902, 21280, 18270, -25690
927251, 142, 136, -1002, 10220, 7000, -23380
927271, 105, 134, -1024, 2940, 2450, -18410
927291, 65, 157, -1007, 6160, 12110, -11830
927311, 0, 163, -951, 15540, 23800, -7140
927331, 4, 165, -981, 20510, 25620, -4480
927351, 99, 148, -1078, 18270, 17290, -7140
927371, 154, 131, -1082, 18410, 14000, -13160
927391, 149, 119, -1020, 29470, 17990, -9170
927411, 106, 109, -983, 41650, 31360, -3920
927431, 86, 100, -989, 44170, 39200, -4410
927451, 175, 64, -1051, 40530, 32970, -9940
927471, 233, 53, -981, 41720, 25620, -12670
927491, 209, 33, -940, 52570, 28630, -9030
927511, 206, 23, -969, 59710, 40040, -4270
927531, 241, -12, -1044, 56490, 38570, -4480
927551, 273, -37, -979, 53130, 25900, -5950
927571, 209, -64, -927, 62510, 17360, 2450
927591, 133, -71, -972, 74060, 25900, 14420
927611, 156, -102, -1061, 75810, 39620, 15190
927631, 242, -98, -990, 76720, 39760, 7980
927651, 316, -163, -900, 84210, 32690, -3430
927671, 343, -223, -1041, 85400, 28420, 3990
927691, 241, -206, -970, 91000, 27440, 11550
927711, 206, -180, -829, 97510, 21210, 13580
927731, 391, -254, -1076, 89180, 15330, 8890
927751, 294, -313, -910, 98910, 7280, 14910
927771, 392, -325, -797, 97370, 6370, 20230
927791, 219, -355, -876, 88900, 840, 30030
927811, 226, -307, -791, 87780, 8470, 31780
927831, 261, -334, -692, 100940, 15190, 36610
927851, 195, -430, -973, 95900, 1400, 46830
927871, 203, -460, -821, 91070, 490, 51240
927891, 204, -493, -764, 88200, 7070, 47250
927911, 254, -567, -771, 86030, 13440, 31500
927931, 260, -614, -742, 89040, 19390, 19530
927951, 268, -648, -727, 103740, 22330, 15540
927971, 339, -740, -740, 127890, 27650, 8750
927991, 356, -779, -676, 186970, 25410, 21280
928011, 275, -808, -559, 269290, 16240, 38430
928031, 266, -832, -480, 297430, 35140, 18550
928051, 289, -872, -387, 320530, 54530, -6650
928071, 249, -847, -226, 334740, 60480, -12810
928091, 248, -886, -143, 302470, 54180, 10080
928111, 237, -953, -26, 246330, 45570, 21910
928131, 255, -1035, 34, 179480, 46760, 19320
928151, 224, -977, -14, 92820, 49210, 7350
928171, 163, -981, 31, 45360, 34230, 54390
928191, 569, -1165, -38, 27650, 29680, 112840
928211, 228, -1031, 61, 45570, 17920, 78260
928231, 276, -972, 77, 77140, -13300, -59570
928251, 245, -847, 52, 93030, -22330, -80150
928271, 220, -803, 87, 115150, -32550, -136850
928291, 281, -777, 110, 129920, -24500, -118790
928311, 347, -922, 241, 140280, -1750, -54390
928331, 340, -1021, 458, 173670, 24010, 6160
928351, 240, -916, 461, 216090, 37310, 33530
928371, 214, -792, 479, 251090, 38150, 25830
928391, 248, -731, 535, 261240, 44450, 13930
928411, 308, -738, 628, 265160, 59080, 22400
928431, 285, -768, 724, 254660, 63560, 47880
928451, 173, -616, 805, 237510, 59780, 53340
928471, 120, -590, 829, 236180, 56980, 52080
928491, 131, -492, 810, 229600, 50400, 52570
928511, 221, -467, 791, 219730, 36960, 35000
928531, 143, -408, 985, 223020, 35700, 27090
928551, 75, -295, 1071, 262710, 66080, 49140
928571, 45, -184, 1108, 207130, 29400, 31220
928591, 55, -175, 981, 168420, 18760, 29120
928611, -21, -83, 956, 135590, -4900, 19670
928631, -6, -39, 968, 108220, 13860, 11060
928651, 46, -15, 1103, 144760, 29330, 7070
928671, 8, 70, 1105, 159250, 20510, 3990
928691, 19, 118, 1081, 136710, 19110, 2380
928711, -13, 161, 1012, 133490, 18480, 3850
928731, -23, 241, 1006, 124390, 26180, 7770
928751, -33, 246, 995, 125860, 33390, 16730
928771, -97, 251, 1012, 135520, 35070, 19320
928791, 33, 274, 916, 153300, 56630, 12740
928811, -11, 391, 875, 176680, -15750, 2940
928831, -10, 406, 924, 86240, 53550, 12740
928851, -52, 395, 853, 44660, 73570, 25970
928871, -139, 419, 768, 47740, 61250, 32410
928891, -180, 484, 913, 58170, 83020, 24150
928911, -280, 506, 1022, 67340, 118090, 4620
928931, -236, 532, 1018, 64750, 124950, -19040
928951, -194, 486, 971, 43540, 57470, -30310
928971, -134, 424, 938, 23520, -4760, -35700
928991, -111, 504, 853, 31920, -53620, -2100
929011, -161, 601, 803, 108780, -100240, 83090
929031, -102, 675, 810, 201810, -100730, 146580
929051, -78, 708, 810, 149870, -83650, 119770
929071, 0, 702, 880, 56070, -63560, 50330
929091, -47, 701, 750, -12600, -44380, -2450
929111, 67, 639, 777, -14770, -50470, 9940
929131, 55, 645, 793, -3640, -13440, 6300
929151, 50, 696, 839, -2660, -7420, 9310
929171, 46, 688, 858, -5390, -12810, 12460
929191, 66, 661, 851, -3850, -26390, 10360
929211, 99, 604, 781, -17430, -28770, 1120
929231, 84, 634, 791, -22890, -32060, 26670
929251, 145, 638, 757, 15470, -33180, 55650
929271, 202, 664, 754, 36820, -18690, 58660
929291, 127, 661, 613, 57680, -18970, 67760
929311, 115, 682, 559, 116270, -59570, 108570
929331, 272, 718, 507, 152950, -95410, 79660
929351, 208, 765, 502, 206990, -75810, 24290
929371, 261, 876, 545, 214060, -58940, 15750
929391, 292, 819, 420, 173250, -46200, 3150
929411, 271, 878, 386, 156730, -44100, -3710
929431, 235, 911, 330, 167510, -49700, -12250
929451, 249, 916, 232, 183120, -40180, -23660
929471, 259, 962, 211, 182140, -40390, -39340
929491, 298, 1025, 114, 165620, -34440, -51450
929511, 237, 995, -8, 133980, -22470, -69020
929531, 119, 950, 54, 95620, -4060, -75530
929551, 152, 994, 23, 82880, 5390, -60480
929571, 104, 1011, 23, 75950, 12180, -55020
929591, 104, 1026, -1, 52430, 25270, -55370
929611, 72, 990, -16, 31570, 38080, -59220
929631, 178, 918, -71, 24710, 39410, -54740
929651, 109, 974, -86, 32550, 56210, -31780
929671, 58, 1022, 0, 31430, 77630, -15050
929691, 58, 1056, -46, 36750, 68320, -6720
929711, 7, 977, -39, 38640, 50540, -15120
929731, -8, 1015, -75, 32130, 35560, -32970
929751, -15, 1050, -90, 29960, 21350, -30940
929771, 19, 1002, -88, 28700, 15750, -20300
929791, 93, 1061, -130, 32480, 16940, -8610
929811, 7, 1064, -115, 28420, 15890, -15470
929831, 10, 992, -133, 32970, 6650, -12670
929851, 40, 1070, -152, 47740, 4130, 4760
929871, 48, 1052, -158, 52430, 13790, 19740
929891, 76, 870, -227, 65030, 21140, 47670
929911, 139, 980, -255, 73150, 25200, 69650
929931, 104, 1016, -286, 64540, 19670, 49490
929951, 194, 892, -300, 64820, 9520, 40180
929971, 234, 912, -315, 60410, 4830, 41930
929991, 158, 871, -321, 51380, 5950, 29120
930011, 159, 954, -303, 44800, 5950, 28420
930031, 212, 850, -350, 57750, -1190, 50820
930051, 200, 797, -385, 69160, -4200, 55720
930071, 233, 714, -408, 58940, -3570, 41440
930091, 235, 886, -394, 38500, -4410, 27090
930111, 217, 932, -362, 20160, -9730, -2940
930131, 254, 908, -403, 20300, -15260, 7770
930151, 266, 857, -405, 31850, -15260, 31640
930171, 272, 867, -422, 36890, -18270, 38780
930191, 319, 851, -451, 39620, -19530, 41440
930211, 329, 838, -472, 40600, -17920, 55650
930231, 318, 775, -481, 45360, -22890, 62720
930251, 280, 791, -485, 50260, -34790, 54950
930271, 193, 901, -401, 54390, -37660, 49910
930291, 158, 838, -365, 50610, -22400, 22050
930311, 251, 747, -622, 60340, -6510, -23520
930331, 307, 881, -511, 80500, -10220, -42210
930351, 285, 744, -623, 49910, -23100, 54530
930371, 276, 689, -633, 45780, -25900, 35910
930391, 314, 691, -615, 28070, -20930, 24500
930411, 283, 750, -642, 11620, -17220, -140
930431, 274, 735, -620, 2520, -12740, -10990
930451, 241, 724, -600, 1330, -10080, -4270
930471, 281, 732, -624, 1680, -12390, -4340
930491, 253, 657, -623, 3990, -13580, 2030
930511, 278, 834, -605, 3710, -14420, -1120
930531, 206, 791, -589, 6580, -11200, -14280
930551, 199, 673, -624, 20300, -9030, -23520
930571, 212, 661, -638, 17920, -8890, -15190
930591, 298, 739, -640, 13790, -16660, 3850
930611, 212, 685, -662, 18060, -25620, -8050
930631, 243, 759, -685, 14490, -21210, -27160
930651, 268, 734, -683, 490, -4690, -10780
930671, 292, 718, -666, -14630, 9310, -4200
930691, 208, 750, -650, -23310, 8540, -12180
930711, 230, 682, -634, -20720, -1820, -5950
930731, 255, 723, -667, -8120, -12740, 20090
930751, 212, 721, -653, 770, -16240, 25900
930771, 194, 770, -615, -3990, -8120, 28630
930791, 246, 724, -640, -16170, 8610, 16380
930811, 213, 707, -649, -26600, 21000, 770
930831, 212, 728, -644, -19810, 17570, -700
930851, 208, 704, -628, -13160, 15750, 11130
930871, 288, 740, -607, -10500, 22400, 17640
930891, 292, 760, -590, -5530, 28910, 26460
930911, 344, 750, -641, -2310, 31010, 26600
930931, 345, 642, -601, 5810, 27930, 20300
930951, 212, 681, -530, 12390, 27650, -1610
930971, 210, 553, -966, 56770, 24150, -38920
930991, 229, 832, -835, 109480, -2380, -82880
931011, 289, 600, -646, 113680, -45570, -93100
931031, 211, 681, -671, 31780, -75810, -36400
931051, 189, 619, -724, 32270, -50470, -25970
931071, 125, 655, -760, 38500, -40810, -31570
931091, 166, 663, -786, 43330, -39060, -34510
931111, 142, 621, -767, 43610, -28280, -24080
931131, 188, 628, -781, 27790, -15960, -15680
931151, 156, 619, -738, 23030, -4690, -13090
931171, 148, 618, -770, 23520, 15540, -5880
931191, 147, 631, -833, 32900, 17780, -2870
931211, 131, 600, -761, 38990, 12040, -4270
931231, 122, 559, -709, 26670, 5460, -2660
931251, 204, 526, -716, 45080, -34510, -2590
931271, 140, 598, -793, 75740, -46200, -13300
931291, 164, 553, -930, 83790, -42980, -21210
931311, 85, 595, -833, 53480, -30870, -32270
931331, 133, 513, -813, 29750, -31500, -28490
931351, 61, 485, -849, 39060, -35630, -22540
931371, 32, 420, -826, 59010, -45360, -21210
931391, 4, 362, -902, 83440, -43680, -16170
931411, 15, 377, -846, 111650, -44450, -18760
931431, -38, 361, -809, 134050, -45220, -20860
931451, -28, 256, -881, 135520, -23940, -15190
931471, -2, 203, -1002, 149940, -8330, -8750
931491, -18, 134, -1027, 196910, -9450, -16100
931511, -40, 38, -965, 234360, -21000, -13930
931531, -41, -145, -974, 267820, -41790, -27440
931551, 3, -144, -1023, 326620, -91980, -58730
931571, -81, -212, -1086, 348460, -94150, -76020
931591, -77, -341, -978, 269220, -36890, -67620
931611, -88, -409, -921, 199850, -6580, -56910
931631, -107, -453, -856, 176820, 7000, -47810
931651, -59, -476, -792, 179200, 7350, -45780
931671, -41, -539, -809, 185780, 2030, -47740
931691, -10, -655, -796, 196000, -5670, -44380
931711, -55, -733, -774, 201600, -8960, -42350
931731, -62, -656, -606, 207550, 1750, -48090
931751, -14, -727, -533, 209020, 15050, -57750
931771, 38, -912, -589, 213990, 24920, -62510
931791, -9, -958, -590, 221620, 19600, -54250
931811, -40, -907, -466, 219590, 1330, -42000
931831, 162, -818, -352, 190330, -20370, -13230
931851, 106, -978, -362, 157220, -33740, -52290
931871, 49, -1024, -264, 182490, -19740, -51870
931891, 53, -1044, -198, 187110, -17570, -48510
931911, 97, -1065, -177, 177520, -9660, -50120
931931, 142, -1033, -68, 159180, -12600, -38150
931951, 115, -979, -78, 138040, -18690, -21490
931971, 147, -1023, -7, 130620, -21280, -16660
931991, 89, -1036, 43, 134540, -22050, -12950
932011, 93, -1033, 79, 142660, -17710, -8470
932031, 108, -1037, 125, 131880, -12390, -1400
932051, 77, -1009, 160, 119490, -5810, 840
932071, 243, -1343, 478, 119630, 3150, 5880
932091, 124, -1027, 261, 120260, 6930, 9030
932111, 161, -983, 305, 108290, 4270, -6720
932131, 54, -960, 317, 94780, 7210, -36470
932151, 168, -909, 363, 71260, 10360, -59430
932171, 323, -930, 297, 23870, 10570, -55020
932191, 204, -969, 376, 18480, 15190, -14560
932211, 134, -938, 402, 24360, 16660, -700
932231, 133, -964, 376, 22750, 8750, -10080
932251, 126, -963, 321, 24570, -2240, -2170
932271, 189, -946, 401, 26670, -6230, 7980
932291, 211, -993, 334, 45080, 210, 12320
932311, 139, -983, 336, 46900, 15610, 10010
932331, 118, -895, 475, 74340, 28420, 9380
932351, 162, -859, 495, 98420, 26880, 10710
932371, 149, -855, 466, 81270, 19600, 8610
932391, 217, -752, 557, 83580, 20580, 12950
932411, 119, -806, 595, 88620, 22540, 8190
932431, 63, -807, 564, 37590, 14000, -6650
932451, 108, -797, 537, 12250, -1190, -18130
932471, 142, -752, 574, 16940, -7420, -19110
932491, 163, -811, 599, 45500, -7770, -9730
932511, 144, -875, 679, 49770, 9100, 10150
932531, 90, -825, 698, 76860, 35490, 26810
932551, 67, -824, 642, 83580, 48440, 6440
932571, 114, -736, 699, 66360, 28490, -8890
932591, 119, -767, 709, 63980, 21000, -4200
932611, 91, -742, 752, 67060, 21980, 11340
932631, 38, -746, 753, 86870, 30310, 22890
932651, 1, -661, 764, 85330, 26670, 21210
932671, 16, -650, 673, 66570, 6090, 11900
932691, 46, -657, 744, 45500, 1470, 12320
932711, 35, -711, 796, 48720, 4410, 7840
932731, 2, -660, 814, 49980, 18830, 7070
932751, -7, -708, 802, 61670, 22750, 70
932771, 25, -643, 846, 64050, 1540, -15330
932791, 136, -541, 843, 56350, -29890, -27580
932811, 160, -432, 788, 52150, -48650, -34160
932831, 128, -468, 804, 41230, -41440, -38710
932851, 7, -617, 836, 34160, -15400, -38290
932871, 77, -577, 865, 25410, 9170, -14770
932891, 61, -596, 900, 30590, 4200, 12250
932911, 149, -514, 840, 23450, -14560, 8190
932931, 143, -469, 857, 20230, -22540, -840
932951, 108, -514, 867, 15050, -10220, -3150
932971, 127, -499, 889, 9450, 1680, 6370
932991, 97, -488, 852, 7490, 1400, 12390
933011, 76, -517, 863, 7420, 3150, 12180
933031, 111, -473, 863, 4480, 10710, 7630
933051, 72, -496, 847, 7840, 15540, 9800
933071, 118, -516, 902, 6860, -210, 13580
933091, 100, -489, 898, 13650, -12390, 18620
933111, 81, -499, 909, 20300, -4060, 2800
933131, 58, -484, 892, -4480, 9030, -26740
933151, 65, -513, 879, 7420, -11550, -10500
933171, 92, -465, 893, 22050, -21280, 7420
933191, 66, -485, 897, 18620, -20370, 13300
933211, 126, -466, 916, -6650, -15750, 3290
933231, 103, -477, 865, -8050, -8470, -17290
933251, 171, -466, 932, 8750, -3990, -39830
933271, 163, -434, 879, 26670, 1890, -33670
933291, 119, -433, 929, 29680, 1680, -16520
933311, 141, -431, 922, 24990, 11970, 3500
933331, 93, -446, 932, 18550, 10010, 1960
933351, 109, -417, 884, 14770, 560, -10500
933371, 100, -367, 927, 21700, -13510, -22750
933391, 106, -380, 906, 31850, -25480, -25200
933411, 119, -394, 907, 49350, -32410, -17290
933431, 138, -424, 878, 52080, -22260, -3710
933451, 136, -391, 877, 45780, -6230, 5950
933471, 135, -308, 1038, 42070, 6510, 8680
933491, 179, -285, 980, 40180, 14280, 4690
933511, 169, -364, 946, 31570, -4620, 1470
933531, 186, -346, 881, 22330, -29750, -1050
933551, 152, -301, 965, 16450, -24780, -13860
933571, 172, -304, 951, 34510, -20440, -15050
933591, 260, -254, 994, 34860, -16940, -14420
933611, 133, -255, 905, 37450, -13230, -14140
933631, 131, -229, 932, 35770, -20860, -9800
933651, 160, -146, 889, 36750, -16730, -11060
933671, 111, -203, 919, 35000, 1680, -12950
933691, 159, -196, 925, 35280, 17780, -13790
933711, 194, -132, 959, 34300, 32690, -14630
933731, 88, -198, 788, 35910, 39760, -11340
933751, 141, -171, 789, 55300, 30100, -10220
933771, 154, -86, 1152, 61880, 34930, -16590
933791, 226, -146, 925, 75600, 35210, -12950
933811, 195, -118, 982, 51660, 34020, -9870
933831, 169, -88, 972, 43190, 21000, -4340
933851, 157, -88, 1073, 33880, 21980, -2170
933871, 123, -95, 978, 41790, 12110, 1330
933891, 107, -80, 999, 35000, 15400, 2940
933911, 109, -46, 1039, 31640, 17990, 1260
933931, 81, -20, 1057, 30660, 17990, -280
933951, 86, -11, 1033, 23030, 5390, 1540
933971, 57, 12, 1067, 17430, 2940, 4480
933991, 71, 2, 1062, 6020, 7630, 3290
934011, 83, -17, 1002, 1190, 4130, 7140
934031, 76, -12, 995, 0, 980, 8470
934051, 88, -7, 1055, 1960, 2170, 7000
934071, -7, 10, 930, -4340, 910, 3360
934091, 30, 26, 1018, 4130, 8190, -14140
934111, 61, 35, 1040, 3640, 23310, -21350
934131, 57, 20, 1033, -3080, 15680, -11970
934151, 77, 17, 1081, -11550, 2170, -7210
934171, 91, -25, 1024, -26880, -13930, -4620
934191, 113, -54, 986, -34090, -25900, 840
934211, 126, -87, 923, -29050, -24920, 2800
934231, 93, -87, 876, -19180, -17010, 3920
934251, 85, -63, 1001, 7490, -3500, 4970
934271, 58, -34, 988, 17780, 910, 6020
934291, 65, 0, 1036, 7210, 2030, 2380
934311, 55, -20, 1046, 5460, -1260, 3150
934331, 71, -49, 1013, 9380, 3360, -700
934351, 92, -36, 997, 7350, 6160, -6230
934371, 103, -29, 916, 8330, 6160, -4760
934391, 75, -8, 1070, 15120, 9590, -7630
934411, 95, -21, 983, 16520, 5880, -3920
934431, 90, -20, 1011, 12670, 5320, -1960
934451, 63, 44, 1011, 28350, 8890, 4970
934471, 21, 6, 1028, 38080, 12110, 11340
934491, 51, 26, 966, 42070, 10780, 16100
934511, 55, 44, 1021, 45710, 1330, 17920
934531, 87, 86, 971, 53690, 6090, 19810
934551, 48, 66, 981, 39200, 9520, 22680
934571, 15, 111, 1054, 19740, 11410, 25900
934591, 25, 93, 933, 13090, 15400, 27090
934611, 43, 66, 964, 11060, 6510, 17990
934631, 47, 105, 1015, 23450, 4340, 8960
934651, 35, 128, 1040, 29610, 6230, 5040
934671, 16, 138, 946, 25270, 5180, 4410
934691, 64, 136, 915, 27160, 1540, 5390
934711, 66, 204, 1002, 59220, -6300, 4480
934731, 64, 230, 984, 108500, -21910, 8610
934751, 87, 309, 1001, 117320, -24150, 8890
934771, 81, 363, 994, 127050, -17570, 6720
934791, 57, 403, 983, 137970, -14980, 11340
934811, 44, 389, 940, 133420, -10360, 19040
934831, 60, 394, 896, 102620, 980, 20160
934851, 67, 423, 880, 77350, 22050, -1750
934871, 83, 479, 879, 98700, 14770, -13160
934891, 63, 536, 871, 113750, 1400, -11270
934911, 30, 537, 821, 119910, -7560, -3710
934931, 49, 578, 792, 128870, -11690, -6650
934951, 55, 630, 761, 138600, -23170, -7630
934971, 86, 676, 745, 140560, -32620, -7630
934991, 75, 727, 719, 128520, -26670, -7630
935011, 86, 741, 704, 117670, -17360, -4760
935031, 71, 727, 663, 106330, -7350, -2520
935051, 99, 774, 628, 101500, -210, -9240
935071, 97, 822, 596, 109060, 1680, -10920
935091, 69, 823, 535, 123340, 140, -2380
935111, 80, 825, 504, 130970, -1960, -2100
935131, 93, 882, 464, 134540, 1190, -8960
935151, 42, 924, 377, 138600, 4340, -7070
935171, 23, 937, 344, 143360, 10920, 3360
935191, 14, 918, 282, 144270, 12460, 6300
935211, 54, 967, 221, 142030, 22120, 770
935231, 58, 886, 220, 147630, 25130, -2520
935251, 128, 998, 177, 152600, 9100, 2940
935271, 71, 1231, 15, 158480, -12670, 8680
935291, 52, 1058, 151, 148960, -21980, 9100
935311, 79, 1000, 140, 99120, -11760, 9450
935331, 151, 1015, 65, 76300, -12460, 22400
935351, 131, 1139, 33, 65030, -11760, 14070
935371, 147, 1116, 8, 66360, -9870, -11200
935391, 103, 991, -28, 70910, -5320, -3430
935411, 23, 970, -41, 71540, -4550, -7070
935431, 20, 1062, -39, 61740, 5390, -18760
935451, 46, 1111, -50, 52290, 15680, -9940
935471, 69, 1004, -92, 54180, 20160, 1190
935491, 70, 923, -147, 65100, 21560, 6790
935511, 76, 901, -196, 70280, 17220, 7070
935531, 75, 1017, -198, 61740, 11200, 8330
935551, 115, 954, -223, 49070, 10990, 3920
935571, 153, 932, -249, 47670, 11340, 4620
935591, 161, 983, -266, 48370, 7140, 11060
935611, 163, 928, -286, 45850, 2240, 18270
935631, 170, 876, -291, 44590, -1470, 23800
935651, 133, 938, -295, 40600, -4480, 31850
935671, 125, 899, -312, 39060, -7140, 26390
935691, 127, 798, -342, 45570, -7280, 27790
935711, 199, 875, -345, 47740, -14630, 38010
935731, 247, 1049, -347, 41300, -26320, 32340
935751, 228, 915, -382, 56980, -17080, 30520
935771, 177, 665, -427, 89530, -43680, 43190
935791, 160, 714, -447, 87990, -46830, 53550
935811, 162, 836, -425, 67270, -29750, 43470
935831, 166, 794, -416, 49000, -24150, 38990
935851, 75, 949, -375, 43190, -19110, 13790
935871, 203, 775, -461, 43400, -630, 13720
935891, 237, 890, -497, 42630, 5950, 7350
935911, 255, 881, -552, 34300, -3010, -8120
935931, 182, 920, -521, 34580, -3290, -20090
935951, 210, 865, -498, 27090, -14210, 21980
935971, 201, 814, -526, 33110, -22120, 6860
935991, 250, 862, -538, 25340, -18060, 1540
936011, 198, 744, -585, 22190, -15750, 4060
936031, 212, 753, -591, 18830, -21350, -4340
936051, 172, 765, -560, 17920, -23940, -5670
936071, 155, 813, -577, 13020, -15750, -6510
936091, 157, 798, -570, 9380, -10080, -7490
936111, 184, 744, -602, 15190, -5670, -16170
936131, 204, 794, -638, 19880, -6650, -16730
936151, 196, 798, -627, 10010, -8190, -8890
936171, 152, 760, -608, 5320, -12110, -12180
936191, 138, 713, -616, 3430, -13020, -14980
936211, 143, 835, -589, -210, -5880, -17990
936231, 175, 820, -614, -1890, -490, -13440
936251, 169, 768, -622, 3640, -1750, -7770
936271, 153, 795, -613, 5110, -3850, 490
936291, 160, 745, -617, 3990, -2730, -1120
936311, 134, 775, -608, 4550, -1610, -10290
936331, 196, 742, -622, 3430, 1820, -13720
936351, 177, 766, -604, 5390, 7770, -6650
936371, 130, 792, -612, 7840, 15260, -3990
936391, 178, 750, -600, 9730, 19740, -7560
936411, 174, 805, -595, 7840, 22540, 700
936431, 188, 753, -618, 5600, 23170, 2030
936451, 142, 728, -595, 2590, 22330, 6650
936471, 140, 740, -599, -1890, 19670, 4690
936491, 204, 753, -597, -1820, 17850, -630
936511, 222, 776, -610, -2170, 19250, -4410
936531, 200, 763, -548, -10570, 30590, -7280
936551, 145, 773, -616, -24570, 47670, -12180
936571, 211, 743, -622, 2800, 35070, -8610
936591, 185, 763, -598, 15120, 19110, 2380
936611, 242, 740, -608, 9520, 15050, -2450
936631, 200, 764, -596, 3710, 7490, -770
936651, 179, 759, -617, -980, -10220, 3850
936671, 153, 780, -599, -2380, -4900, 7840
936691, 210, 759, -613, -4340, -1820, 980
936711, 192, 800, -581, -10080, 1330, -12180
936731, 187, 799, -582, -12600, 3500, -13440
936751, 198, 781, -590, -8610, -3220, -12460
936771, 210, 750, -604, -4130, -12110, -13580
936791, 203, 677, -589, -2520, -17430, -11130
936811, 221, 765, -588, -3430, -22050, -18060
936831, 170, 816, -602, 210, -29120, -21070
936851, 158, 778, -615, 1890, -28420, -22750
936871, 158, 763, -625, 9800, -26600, -13580
936891, 62, 660, -607, 13510, -21280, -2380
936911, 146, 780, -647, 6440, -9380, 2240
936931, 106, 803, -624, 13650, -5460, 2030
936951, 144, 743, -613, 19320, -6160, -13090
936971, 137, 753, -661, 21770, -3780, -16030
936991, 128, 746, -634, 22820, 3220, -16310
937011, 120, 778, -686, 29820, 9450, -7280
937031, 109, 733, -633, 27720, 14350, -4620
937051, 126, 691, -657, 17150, 17080, -5600
937071, 173, 723, -653, 3500, 10150, -5530
937091, 133, 672, -683, 8260, 13230, -6650
937111, 120, 795, -656, 24290, 16660, -9380
937131, 99, 818, -647, 32760, 14630, -140
937151, 106, 625, -637, 40950, 14700, 17710
937171, 170, 724, -744, 51030, 3010, 21280
937191, 222, 637, -702, 61670, -24500, 7000
937211, 174, 702, -795, 68670, -43750, -10710
937231, 127, 727, -784, 65240, -42560, -39130
937251, 147, 698, -796, 50820, -34370, -45850
937271, 72, 647, -763, 48440, -20930, -34580
937291, 82, 627, -770, 49910, -7770, -12600
937311, 77, 642, -819, 46480, -20510, -4900
937331, 45, 622, -844, 28980, -26320, -9800
937351, 76, 568, -822, 18830, -11200, -1120
937371, 87, 534, -791, 16940, 6300, 12530
937391, 91, 543, -772, 20580, 27580, 19670
937411, 87, 551, -818, 20440, 43260, 16520
937431, 91, 529, -815, 12530, 32760, -560
937451, 56, 506, -773, 10430, 19390, -12810
937471, 90, 527, -799, 17360, 8470, -12740
937491, 82, 526, -774, 18410, -3430, -15890
937511, 107, 519, -783, 20580, -12740, -23800
937531, 103, 549, -839, 21070, -18270, -28910
937551, 72, 531, -859, 32480, -14840, -22890
937571, 44, 478, -810, 36260, -10850, -13580
937591, 44, 506, -848, 45220, -9310, -7000
937611, 34, 486, -862, 43470, -12670, -3850
937631, 55, 469, -894, 39200, -12460, 1400
937651, 22, 422, -875, 42490, -18480, -4200
937671, 13, 375, -908, 58870, -20090, -8260
937691, -15, 348, -992, 94850, -24080, -13860
937711, -77, 323, -991, 126280, -37240, -40530
937731, -8, 332, -999, 143290, -65590, -67130
937751, 8, 259, -985, 144760, -82880, -69440
937771, -58, 152, -1025, 139580, -50680, -49420
937791, -21, 133, -1087, 160790, -28070, -35910
937811, -60, 99, -1050, 196280, -910, -25900
937831, -62, 1, -970, 188440, 31290, -13230
937851, -40, -78, -953, 164570, 22330, -12810
937871, -45, -132, -951, 172760, 12810, -22470
937891, -51, -220, -988, 208180, 9380, -30730
937911, -46, -272, -969, 228060, 8050, -30170
937931, -17, -356, -972, 237650, 4830, -28560
937951, -32, -424, -942, 229320, 8610, -27860
937971, -39, -476, -873, 211400, 17640, -24570
937991, -31, -540, -838, 189840, 18900, -23310
938011, -12, -631, -812, 181720, 12250, -23450
938031, 20, -674, -778, 181440, 7560, -18060
938051, 18, -741, -740, 181440, 7840, -18060
938071, 33, -782, -693, 189490, 13930, -22680
938091, 39, -819, -651, 203350, 20300, -30100
938111, 57, -862, -585, 206430, 23030, -42070
938131, 41, -854, -501, 193970, 22610, -52990
938151, 55, -862, -408, 180040, 18130, -48090
938171, 93, -926, -396, 170380, 11060, -40530
938191, 140, -986, -366, 168490, 6650, -43330
938211, 149, -996, -296, 174650, 6580, -52850
938231, 147, -962, -228, 177030, 8400, -64330
938251, 198, -985, -191, 168910, 14560, -57610
938271, 220, -992, -146, 149520, 25270, -30380
938291, 177, -974, -48, 149240, 32900, -17290
938311, 138, -1007, 66, 165130, 37030, -5740
938331, 198, -1000, 88, 165410, 34230, 7980
938351, 193, -977, 127, 144550, 25060, 210
938371, 189, -984, 161, 127610, 25270, 490
938391, 144, -937, 197, 112420, 25340, 1050
938411, 155, -1046, 202, 104300, 16590, -770
938431, 224, -1055, 136, 90090, -1260, 3010
938451, 207, -963, 256, 53760, -22190, -27090
938471, 201, -910, 345, 47950, -15050, -41720
938491, 195, -911, 192, 22050, -10360, -52710
938511, 254, -1065, 166, 12740, -8190, -57610
938531, 247, -1078, 239, 40460, -6580, -48720
938551, 192, -971, 256, 64540, -3290, -50050
938571, 296, -916, 307, 73570, -630, -52430
938591, 263, -1036, 347, 73360, 2660, -38920
938611, 346, -950, 344, 77280, 770, -21770
938631, 421, -1001, 410, 79590, -8540, -34720
938651, 434, -861, 414, 85400, -3570, -28910
938671, 301, -643, 454, 88690, 3710, -17640
938691, 346, -634, 480, 75950, 3850, -7280
938711, 337, -730, 497, 51450, 2100, 14490
938731, 338, -894, 504, 33040, -70, 32690
938751, 317, -771, 533, 30660, 2240, 36610
938771, 309, -821, 536, 35350, 8190, 23310
938791, 309, -865, 549, 36260, 12950, 23660
938811, 305, -912, 570, 40950, 18620, 25480
938831, 263, -854, 599, 54250, 23870, 11760
938851, 295, -714, 606, 65170, 21770, -10150
938871, 281, -603, 635, 72800, 14980, -35210
938891, 215, -640, 621, 69720, 17220, -33950
938911, 240, -733, 644, 56770, 16520, -19740
938931, 326, -644, 666, 46550, 6860, -18410
938951, 353, -576, 681, 44660, 1610, -27160
938971, 293, -578, 697, 37870, 7700, -24150
938991, 314, -672, 685, 19670, 6790, -25130
939011, 278, -762, 653, 3080, 3080, -13720
939031, 177, -941, 652, -5390, 3010, 8680
939051, 254, -748, 672, -350, 12880, 16310
939071, 252, -697, 654, 12530, 12460, -4480
939091, 313, -623, 671, 12180, 8960, -12810
939111, 288, -681, 659, 7000, 6020, -14770
939131, 194, -665, 700, 2940, 13930, 1540
939151, 197, -688, 710, 1470, 25830, 32270
939171, 240, -778, 634, -2030, 25900, 35560
939191, 222, -617, 694, -10290, 3080, 8260
939211, 295, -610, 679, -5460, 8610, 10920
939231, 237, -721, 703, -10920, 14910, 17990
939251, 154, -729, 652, -24010, 22470, 17780
939271, 234, -727, 706, -30240, 22750, 15680
939291, 260, -687, 648, -32760, 5740, 14070
939311, 251, -776, 636, -30590, 5320, 11480
939331, 173, -732, 687, -31710, 14630, 11200
939351, 191, -767, 699, -28140, 21000, 700
939371, 287, -750, 739, -25550, 14560, -4900
939391, 107, -791, 681, -36400, 5950, 23240
939411, 125, -870, 622, -50680, 1750, 45780
939431, 145, -851, 627, -49140, -3150, 31850
939451, 156, -823, 615, -38220, -5670, 14910
939471, 169, -670, 618, -28140, -8960, 5390
939491, 213, -656, 561, -34580, -16450, 13930
939511, 126, -794, 533, -54950, -9660, 52290
939531, 53, -919, 473, -71750, 1890, 81270
939551, 15, -949, 491, -61810, 490, 64890
939571, 28, -868, 490, -41440, -10360, 30030
939591, 102, -784, 433, -31500, -20370, 3780
939611, 100, -893, 441, -27860, -18200, 12180
939631, 117, -943, 470, -26390, -14280, 26880
939651, 67, -978, 452, -22750, -8960, 28980
939671, 91, -919, 479, -10220, -3010, 12250
939691, 104, -905, 498, 3080, -420, -7140
939711, 97, -913, 504, 10920, 2310, -15750
939731, 90, -921, 482, 20090, 7560, -14140
939751, 69, -928, 590, 32690, 11690, -13440
939771, 53, -909, 570, 38920, 16170, -20230
939791, 84, -868, 522, 24570, 17990, -40250
939811, 146, -851, 480, 20650, -15120, -46410
939831, 144, -845, 543, 22680, -38780, -43960
939851, 138, -849, 576, 18970, -27020, -26250
939871, 161, -802, 513, 13160, -21210, -13370
939891, 132, -835, 518, 13160, -12950, -4900
939911, 148, -792, 547, 16730, -2100, 2940
939931, 112, -786, 526, 16520, 6720, 5530
939951, 113, -826, 591, 15050, 17850, 9940
939971, 161, -853, 573, 15540, 17990, 7910
939991, 185, -828, 542, 14000, 770, -560
940011, 170, -843, 565, 11270, -5880, -2450
940031, 162, -844, 551, 12110, -4620, -2450
940051, 149, -811, 543, 12040, -2660, -2100
940071, 167, -822, 561, 12180, 630, 0
940091, 151, -813, 624, 15540, 5880, 2800
940111, 170, -792, 629, 18900, 8890, 4620
940131, 67, -695, 543, 19880, 5390, 3430
940151, 151, -798, 621, 29540, -6440, -3150
940171, 135, -762, 655, 41580, -18760, -22820
940191, 147, -783, 644, 19110, -980, -8680
940211, 184, -785, 661, 21840, 3500, 350
940231, 166, -810, 684, 28910, 13860, 8330
940251, 175, -783, 668, 22540, 12250, 5460
940271, 121, -795, 718, 23800, 11480, 6790
940291, 97, -761, 689, 24150, 13300, 9030
940311, 97, -752, 693, 21630, 9590, 4760
940331, 130, -739, 576, 20510, 5110, 1470
940351, 143, -737, 703, 23730, 7280, -4060
940371, 100, -724, 744, 21560, 10780, 5250
940391, 56, -692, 676, 20160, 6090, 5460
940411, 82, -682, 669, 24710, 4130, -3220
940431, 85, -701, 714, 26950, 8400, -9100
940451, 139, -681, 748, 24570, 5460, -14490
940471, 115, -680, 757, 30240, -6650, -21420
940491, 117, -650, 755, 41930, -16800, -28070
940511, 179, -632, 728, 49910, -21770, -38570
940531, 142, -626, 751, 51660, -7840, -36400
940551, 186, -614, 782, 55370, 7070, -25620
940571, 166, -641, 846, 53200, 16380, -24430
940591, 126, -595, 853, 51310, 19110, -22260
940611, 143, -595, 785, 54180, 12670, -12600
940631, 160, -568, 832, 58800, 4200, -13160
940651, 200, -578, 957, 67200, 4200, -11060
940671, 153, -582, 990, 70070, 9310, 70
940691, 204, -591, 787, 49490, 1610, 3360
940711, 151, -446, 890, 35490, -6650, -8610
940731, 146, -509, 849, 51240, 3290, -9240
940751, 160, -452, 867, 42980, 3640, -2520
940771, 158, -441, 867, 44800, -5880, -5040
940791, 134, -432, 897, 52080, -1820, -5880
940811, 129, -393, 885, 58240, 13650, -910
940831, 121, -360, 868, 70490, 13370, 490
940851, 123, -332, 884, 84420, 4060, -1330
940871, 146, -315, 934, 97510, -9730, -980
940891, 173, -289, 950, 101710, -14840, 3850
940911, 109, -234, 1032, 105070, -20790, 5880
940931, 152, -186, 1011, 113330, -11830, 4970
940951, 194, -146, 955, 112000, -10010, -1680
940971, 170, -119, 913, 97720, -25900, -10780
940991, 160, -85, 1029, 108990, 12040, -840
941011, 194, -78, 956, 79380, 21420, 2520
941031, 123, -39, 1018, 73150, 6020, -4200
941051, 149, -2, 1010, 113540, 1190, 7350
941071, 171, 8, 1043, 123130, -10360, 17850
941091, 196, 42, 973, 100520, -23870, 16310
941111, 256, 85, 1018, 64120, -34370, 5460
941131, 195, 100, 1036, 64470, -39620, 5670
941151, 200, 124, 918, 39620, -40390, -5320
941171, 224, 115, 957, 35000, -27510, -7140
941191, 237, 154, 999, 23310, -13860, -5320
941211, 232, 156, 981, -770, -3150, -3010
941231, 202, 138, 964, -18550, 16030, -7420
941251, 220, 138, 949, -27370, 18970, -6300
941271, 214, 117, 1012, -26250, 8890, 1400
941291, 207, 65, 1003, -29400, 3360, 3850
941311, 208, 51, 955, -37240, 6300, -5600
941331, 215, 28, 983, -40810, 7700, -9660
941351, 193, 20, 1021, -38220, 4480, -7910
941371, 203, 18, 1044, -32900, -14630, -7770
941391, 223, 72, 943, -8680, -50400, -5670
941411, 151, 53, 1012, 6020, -34440, 4410
941431, 168, 45, 986, 350, 24990, 26180
941451, 226, 95, 889, 8050, 14140, 16380
941471, 247, 171, 819, 14140, 9100, 10780
941491, 228, 64, 976, -210, 42560, 25200
941511, 207, 23, 1016, -30170, 63140, 40670
941531, 166, -3, 1047, -39270, 63280, 37800
941551, 151, 5, 998, -37590, 52500, 30590
941571, 178, 7, 951, -35000, 19250, 21420
941591, 166, -5, 964, -31780, 2730, 15610
941611, 110, -55, 1059, -29540, 24220, 12880
941631, 60, -48, 997, -26880, 40110, 8820
941651, 63, -32, 970, -18550, 40600, 7910
941671, 105, -60, 1043, -16240, 34230, 11200
941691, 89, -87, 1058, -19110, 23450, 11970
941711, 89, -72, 997, -17290, 13650, 11340
941731, 77, -90, 1070, -14070, 21280, 14490
941751, 51, -96, 1060, -12950, 36820, 18620
941771, -19, -16, 748, -13440, 19250, 13440
941791, 55, -245, 1165, -121520, -8820, 9100
941811, 24, -260, 1195, -94640, 6930, 12880
941831, 58, -80, 885, -980, 26320, 9100
941851, 98, -113, 1051, 45080, 12320, -840
941871, 42, -124, 1028, 18620, 490, -3360
941891, 14, -166, 1088, 2310, -1330, -2940
941911, 21, -158, 1070, -2450, -980, 1890
941931, 68, -68, 962, 2520, -1820, 4130
941951, 5, 284, 416, 11760, -3010, 2030
