T [ms],AccX [mg],AccY [mg],AccZ [mg],GyroX [mdps],GyroY [mdps],GyroZ [mdps]
404991, 99, -482, 981, 3010, -3500, -1190
405011, 96, -476, 949, 2730, 350, -2380
405031, 117, -478, 912, -2730, 6440, -1330
405051, 166, -472, 845, -1540, -2940, -700
405071, 172, -476, 787, -2100, -3640, 1540
405091, 139, -478, 748, -4060, 560, 4760
405111, 109, -484, 767, -5390, 7280, 5740
405131, 112, -469, 744, -8400, 7700, 2730
405151, 105, -470, 795, -10710, 4270, 0
405171, 75, -500, 878, -12250, -2660, -2450
405191, 52, -508, 864, -19810, -10360, -8680
405211, 76, -490, 850, -20930, -26180, -19740
405231, 135, -505, 860, -19110, -46270, -37030
405251, 167, -524, 869, -31150, -38360, -37590
405271, 207, -515, 877, -24430, -12810, -17080
405291, 204, -512, 894, -19040, 0, -6930
405311, 175, -521, 915, -28420, 210, -11200
405331, 170, -573, 1026, -26600, 2030, -8820
405351, 204, -595, 1050, -28420, -980, -7280
405371, 225, -581, 957, -41020, -15400, -16030
405391, 215, -510, 809, -46410, -12530, -13300
405411, 169, -551, 880, -40250, 9800, 910
405431, 197, -599, 977, -28420, 25690, 13650
405451, 230, -612, 1000, -19530, 17010, 12950
405471, 248, -593, 959, -22960, 7070, 9590
405491, 257, -567, 877, -31920, 8330, 12040
405511, 233, -554, 816, -39830, 13370, 15890
405531, 262, -592, 873, -36820, 15540, 22120
405551, 276, -597, 845, -34230, 15120, 31220
405571, 208, -606, 829, -48230, 15610, 38010
405591, 243, -593, 813, -60620, 18270, 45850
405611, 212, -622, 811, -51730, 10430, 46130
405631, 184, -634, 813, -57470, 14560, 52920
405651, 151, -664, 838, -48720, 5670, 53480
405671, 139, -679, 819, -28420, -16240, 47460
405691, 85, -682, 772, -19110, -27580, 38430
405711, 91, -695, 770, -14910, -21560, 31920
405731, 89, -718, 788, -4830, -21770, 25620
405751, 65, -733, 795, 8750, -29470, 14980
405771, 62, -725, 731, 21350, -35070, 6860
405791, 90, -739, 705, 24500, -39690, 560
405811, 59, -722, 705, 24150, -35280, -5810
405831, 78, -710, 752, 21560, -22400, -16310
405851, 169, -678, 748, 22120, -28210, -24990
405871, 171, -681, 753, 25480, -49840, -31150
405891, 130, -699, 785, 27510, -59430, -32690
405911, 84, -727, 852, 26250, -51240, -23870
405931, 99, -741, 867, 25340, -36120, -13370
405951, 179, -724, 818, 17220, -34510, -9100
405971, 170, -678, 719, 10290, -28980, -6300
405991, 163, -673, 653, 9800, -27090, -1120
406011, 132, -720, 691, 13370, -23310, 5040
406031, 71, -733, 667, 14280, -17150, 8400
406051, 120, -692, 649, 12880, -20930, 1890
406071, 237, -619, 583, 19040, -41580, -9100
406091, 250, -585, 530, 27930, -64260, -13300
406111, 254, -575, 527, 36610, -67620, -7420
406131, 303, -554, 570, 37380, -64470, -7000
406151, 259, -589, 624, 24360, -39480, 1120
406171, 203, -595, 633, 12950, -14210, 16170
406191, 211, -597, 649, 6230, -560, 25620
406211, 167, -648, 692, 6860, -9590, 22820
406231, 185, -639, 658, 4760, -14210, 16590
406251, 272, -630, 779, -2870, 3920, 20440
406271, 307, -697, 915, -11270, 14000, 22680
406291, 306, -674, 892, -21980, 13160, 26320
406311, 398, -679, 923, -24570, -1540, 16240
406331, 481, -746, 1081, -21700, -14630, 1470
406351, 483, -679, 1023, -31780, -5250, 6930
406371, 390, -722, 964, -44100, 4900, 14980
406391, 361, -721, 936, -38920, 1470, 13790
406411, 355, -720, 922, -28840, -13930, -70
406431, 303, -689, 881, -19530, -15260, -4410
406451, 393, -674, 907, -15190, -7840, -7070
406471, 382, -628, 821, -4270, -24360, -18830
406491, 325, -582, 704, 1960, -38430, -23660
406511, 362, -529, 662, 3990, -38850, -24990
406531, 328, -568, 704, 13230, -47110, -34650
406551, 256, -607, 708, 21210, -52220, -35840
406571, 209, -586, 642, 20790, -41370, -24500
406591, 261, -549, 597, 20510, -44170, -28140
406611, 312, -563, 674, 28420, -59430, -41720
406631, 315, -603, 732, 33390, -53830, -38360
406651, 291, -587, 657, 25970, -41650, -25340
406671, 237, -614, 582, 15820, -41930, -15120
406691, 277, -578, 541, 10570, -39480, -8050
406711, 328, -621, 639, 12950, -38500, -9660
406731, 341, -632, 634, 16100, -37450, -12110
406751, 283, -629, 568, 9730, -29050, -4200
406771, 274, -610, 519, 350, -17500, 5880
406791, 360, -619, 604, -4130, -9730, 6020
406811, 426, -616, 673, 2100, -11200, -350
406831, 423, -604, 623, 4620, -16730, -6790
406851, 411, -569, 569, -12740, -7490, 560
406871, 445, -545, 559, -8330, -13930, -4760
406891, 459, -559, 596, -2170, -17360, -10150
406911, 479, -536, 581, -3570, -3990, -3920
406931, 478, -564, 580, -4900, 3850, -980
406951, 492, -542, 575, -8820, 6930, -1400
406971, 489, -559, 603, -7000, 6720, -1680
406991, 473, -551, 589, -4480, 4830, -3430
407011, 479, -532, 560, -4340, 11200, -350
407031, 499, -550, 660, 4760, 13230, -560
407051, 502, -597, 687, 9170, 10920, -4550
407071, 577, -519, 662, -6230, 21490, -3010
407091, 549, -554, 697, 980, 14700, -2450
407111, 538, -546, 651, 8610, 3640, -5600
407131, 502, -554, 664, 13020, -350, -3850
407151, 482, -499, 742, 14700, -6510, -6440
407171, 520, -486, 629, 3010, -4690, -9100
407191, 488, -556, 642, -19600, 7070, -4620
407211, 493, -595, 720, 12040, 2940, 0
407231, 580, -508, 699, 6720, 4270, -6440
407251, 527, -563, 721, -7280, 16170, -70
407271, 488, -576, 735, 7980, -2870, -6790
407291, 536, -493, 682, -6020, 10640, -1890
407311, 539, -546, 768, -7070, 18900, -350
407331, 526, -591, 754, 7770, 5950, -2590
407351, 544, -502, 698, -8610, 14910, 1470
407371, 556, -595, 765, -4130, 13720, 2240
407391, 602, -539, 786, -770, 6370, -4060
407411, 587, -546, 834, -9310, 12530, -630
407431, 612, -536, 843, -9940, 11200, -700
407451, 655, -589, 876, -13160, 6790, -2100
407471, 633, -560, 873, -22610, 2590, -9030
407491, 573, -576, 873, -26670, 8190, -3360
407511, 514, -599, 825, -39340, 17220, 4060
407531, 459, -631, 759, -38920, 17570, 1120
407551, 497, -599, 744, -45430, 21840, -4830
407571, 452, -639, 743, -38570, 18410, -15890
407591, 500, -567, 680, -32550, 11480, -28490
407611, 452, -596, 686, -23800, 4760, -38990
407631, 452, -570, 661, -23240, 12670, -36890
407651, 553, -582, 717, -11760, 15330, -36120
407671, 559, -584, 725, -6440, 8050, -41370
407691, 459, -628, 717, -4060, 7770, -30660
407711, 475, -602, 657, -8820, 11410, -17360
407731, 429, -604, 619, -8400, 350, -17500
407751, 484, -587, 621, -2450, 1680, -13160
407771, 534, -566, 614, 3290, -8540, -18060
407791, 543, -551, 604, 9450, -18410, -14000
407811, 502, -555, 575, 9730, -23170, -7210
407831, 490, -526, 532, 8400, -25200, -5670
407851, 525, -505, 537, 10290, -23310, -5180
407871, 549, -481, 522, 11620, -25060, -5740
407891, 552, -500, 557, 14350, -32900, -6720
407911, 512, -503, 523, 10010, -33040, -280
407931, 476, -493, 445, 1330, -25970, 10360
407951, 457, -496, 442, -2940, -14350, 17290
407971, 532, -509, 541, 560, -3850, 17570
407991, 591, -544, 605, 6930, -6160, 12530
408011, 570, -558, 603, 5390, -7770, 15610
408031, 548, -571, 581, -1610, -3990, 21140
408051, 575, -602, 628, -2800, -70, 21140
408071, 552, -653, 678, -2590, 1050, 18900
408091, 579, -655, 697, -5950, 6230, 20790
408111, 586, -693, 764, -4060, 5670, 17850
408131, 617, -688, 795, -3920, 6020, 14490
408151, 637, -684, 812, -2730, 3360, 10990
408171, 620, -705, 830, -5110, -1750, 6230
408191, 561, -677, 767, -5040, -10920, 1540
408211, 568, -672, 714, -7350, -13160, -350
408231, 553, -652, 705, -5950, -16170, -8750
408251, 583, -652, 731, -4970, -10150, -8540
408271, 534, -675, 713, -1330, -16520, -14700
408291, 533, -658, 661, 1190, -21070, -16940
408311, 548, -630, 679, -2100, -19040, -22610
408331, 538, -641, 683, -6580, -7420, -20090
408351, 520, -617, 640, -7280, -9100, -22750
408371, 534, -604, 591, -2100, -18130, -28000
408391, 504, -602, 592, -4620, -18690, -31990
408411, 551, -575, 592, -6370, -9730, -27930
408431, 567, -553, 539, -3780, -17290, -34790
408451, 562, -503, 466, 770, -30310, -39130
408471, 537, -492, 417, -3290, -32060, -36960
408491, 548, -455, 373, -1890, -30940, -32760
408511, 547, -451, 388, 0, -30660, -32900
408531, 615, -394, 377, 2380, -24220, -31360
408551, 636, -415, 392, -2450, -14700, -30030
408571, 602, -403, 364, -2100, -8890, -21490
408591, 608, -420, 388, -1540, -7770, -14420
408611, 648, -430, 418, 1330, -7070, -12740
408631, 661, -449, 451, -4270, 5530, -6650
408651, 657, -458, 479, -6930, 10850, -1610
408671, 678, -462, 486, -4970, 9940, -1050
408691, 691, -466, 508, -4480, 8680, -1890
408711, 695, -513, 573, -5390, 9450, -1960
408731, 714, -508, 561, -9380, 10710, -70
408751, 705, -509, 554, -8750, 7490, 1610
408771, 741, -523, 595, -6860, 4620, 1120
408791, 752, -544, 627, -8750, 2940, 630
408811, 718, -535, 597, -14070, 6020, 7840
408831, 705, -537, 584, -14420, 980, 8330
408851, 681, -537, 561, -13300, -4900, 6650
408871, 642, -556, 542, -16450, -4690, 8190
408891, 628, -550, 500, -16170, -1820, 11270
408911, 625, -551, 506, -14490, 70, 9520
408931, 620, -544, 511, -12250, 630, 7210
408951, 610, -542, 486, -13370, 1960, 7280
408971, 616, -523, 479, -11340, 140, 4340
408991, 645, -532, 517, -8680, 2240, 2100
409011, 660, -505, 492, -8820, 7700, 1890
409031, 655, -492, 483, -8890, 8190, -350
409051, 643, -525, 525, -4760, 7140, 140
409071, 650, -537, 558, -1540, 8260, 1120
409091, 678, -538, 587, -2590, 11900, 1960
409111, 670, -556, 599, -3780, 11620, 1260
409131, 676, -558, 570, -5810, 11900, 3570
409151, 654, -548, 556, -7070, 11550, 5110
409171, 657, -563, 571, -4340, 9520, 3500
409191, 643, -572, 568, -1540, 6930, 980
409211, 628, -575, 559, -1260, 7420, 1190
409231, 673, -567, 585, -1050, 7770, 490
409251, 687, -563, 581, 700, 5600, -3780
409271, 655, -571, 569, 350, 5180, -3710
409291, 635, -582, 561, -3080, 8400, 1120
409311, 626, -590, 555, -5740, 13510, 6230
409331, 603, -595, 550, -7490, 15890, 7420
409351, 597, -587, 534, -6020, 12320, 5460
409371, 598, -582, 534, -3430, 6510, 1610
409391, 586, -586, 535, -2660, 7350, 1190
409411, 603, -561, 521, -1470, 10570, 1680
409431, 616, -558, 548, 1610, 12670, 2520
409451, 623, -546, 560, 6510, 12390, 1330
409471, 611, -555, 588, 8260, 12250, -630
409491, 644, -553, 613, 8960, 15750, 1820
409511, 661, -554, 619, 8750, 12320, 140
409531, 603, -547, 583, 7700, 700, 560
409551, 591, -559, 584, 6580, -280, -280
409571, 610, -564, 606, 5320, 3430, 1330
409591, 628, -559, 620, 4200, 4340, 910
409611, 628, -559, 615, 3290, 3570, 1190
409631, 614, -556, 601, 3500, 3430, 2100
409651, 594, -548, 581, 4760, 1960, 70
409671, 591, -552, 586, 7210, 1190, -2100
409691, 583, -549, 594, 9870, 3640, -1190
409711, 571, -562, 613, 12950, -420, -4830
409731, 553, -564, 623, 14980, -3080, -8400
409751, 569, -541, 588, 17220, -7910, -14980
409771, 550, -519, 564, 14910, -10430, -20370
409791, 513, -494, 547, 7980, -13930, -25340
409811, 163, -378, 595, -6580, -22400, -34650
409831, 272, -395, 15, -104090, -62370, -68810
409851, 99, -1158, 535, -377440, 16030, -62580
409871, 292, -472, -177, -334880, 135940, 43610
409891, -120, -367, -58, 5040, 209230, 141540
409911, -260, -344, 0, 60830, 404460, 250670
409931, -239, -328, 27, 65170, 352380, 271250
409951, -230, -319, 46, 60830, 216930, 243040
409971, -219, -316, 55, 24360, 114660, 179410
409991, -216, -314, 66, -35980, 39900, 91560
410011, -224, -322, 78, -92610, -44030, 21490
410031, -264, -410, 71, -157990, -138530, -16380
410051, -426, -737, -39, -265090, -222600, -25830
410071, -864, -1738, -258, -402290, -297710, -12880
410091, -1739, -1998, -712, -480830, -423710, 35420
410111, -1487, -1998, -609, -493290, -625450, 114100
410131, -899, -1028, -355, -344680, -926030, 101920
410151, -751, -567, -402, -268170, -1128610, -33320
410171, -939, -662, -560, -433650, -1164240, -94360
410191, -1232, -899, -661, -482160, -1282330, -37730
410211, -1566, -1332, -687, -386610, -1442770, -53060
410231, -1814, -1998, -927, -422870, -1457330, -292530
410251, -1908, -1998, -1085, -711620, -1261120, -669900
410271, -1512, -1146, -812, -758170, -1352260, -708960
410291, -1242, -446, -754, -624610, -1694770, -445060
410311, -1467, -563, -954, -834400, -1726690, -246330
410331, -1872, -1062, -1119, -1109080, -1639680, -65800
410351, -1998, -1383, -1231, -1105090, -1694700, 38220
410371, -1865, -1155, -1152, -897120, -1848560, -37660
410391, -1847, -1074, -1241, -819280, -1858920, -330610
410411, -1800, -698, -1183, -906990, -1800260, -503300
410431, -1346, 0, -934, -830550, -1938440, -500920
410451, -1138, 115, -941, -1076670, -1767080, -518560
410471, -1320, -163, -1040, -1231720, -1654030, -357910
410491, -1435, -304, -1014, -1123500, -1708000, -193970
410511, -1317, -175, -941, -948360, -1776740, -190260
410531, -1158, -76, -881, -916930, -1737120, -270900
410551, -1090, -137, -853, -961940, -1634290, -304640
410571, -1066, -185, -808, -956200, -1552110, -299250
410591, -956, -136, -746, -893830, -1500380, -329000
410611, -828, -67, -676, -844130, -1440530, -376740
410631, -710, -56, -626, -836500, -1352330, -402920
410651, -637, -133, -596, -832020, -1256080, -393960
410671, -638, -246, -565, -786030, -1182160, -355810
410691, -610, -307, -526, -682500, -1141910, -322490
410711, -543, -306, -458, -561120, -1107260, -326620
410731, -453, -300, -387, -486850, -1029700, -364070
410751, -372, -372, -340, -481530, -901600, -407540
410771, -369, -580, -342, -500220, -750820, -419720
410791, -382, -795, -350, -466690, -639800, -383600
410811, -371, -960, -321, -347620, -598010, -304360
410831, -346, -1058, -246, -206360, -583240, -184240
410851, -397, -1161, -198, -140350, -532910, -30240
410871, -538, -1309, -280, -211260, -391860, 114170
410891, -578, -1363, -329, -341180, -185360, 168210
410911, -526, -1342, -330, -372260, -16380, 107730
410931, -460, -1281, -299, -268940, 67690, 22960
410951, -469, -1316, -273, -115570, 117250, -3290
410971, -510, -1406, -259, -70, 172550, 34370
410991, -640, -1588, -301, 42770, 254590, 96110
411011, -849, -1839, -427, -15330, 395640, 147980
411031, -876, -1833, -470, -107030, 563780, 137620
411051, -681, -1458, -379, -55370, 655690, 42560
411071, -595, -1201, -305, 147070, 638890, -18130
411091, -713, -1240, -367, 263900, 649250, 22750
411111, -864, -1377, -489, 216930, 760130, 60270
411131, -838, -1315, -512, 192500, 876960, 1820
411151, -742, -1182, -459, 325500, 908320, -97370
411171, -754, -1153, -449, 495390, 897680, -107870
411191, -815, -1149, -500, 532280, 936530, -6720
411211, -808, -1005, -520, 475580, 1009260, 115850
411231, -742, -800, -490, 472990, 1034880, 197610
411251, -659, -597, -422, 549850, 1008980, 234080
411271, -640, -510, -385, 629230, 982520, 250600
411291, -697, -546, -404, 626220, 997220, 279580
411311, -760, -618, -438, 529130, 1063790, 301630
411331, -727, -604, -448, 401590, 1147300, 234990
411351, -657, -521, -414, 478660, 1093610, 204820
411371, -648, -497, -375, 556920, 1033270, 218470
411391, -696, -553, -367, 557830, 1020740, 225260
411411, -724, -620, -380, 505470, 1045730, 185500
411431, -663, -587, -359, 484750, 1047760, 120610
411451, -586, -524, -310, 513660, 1008490, 92610
411471, -564, -517, -272, 526750, 958930, 125090
411491, -576, -565, -259, 479920, 935830, 171570
411511, -602, -637, -269, 395850, 934080, 191870
411531, -618, -696, -268, 328720, 926590, 177730
411551, -619, -742, -241, 313110, 890400, 136010
411571, -588, -763, -212, 330050, 832440, 77560
411591, -560, -807, -191, 342720, 772520, 24570
411611, -578, -906, -186, 323190, 730240, 1680
411631, -629, -1040, -204, 279090, 699930, 2800
411651, -670, -1150, -230, 243530, 663460, -6300
411671, -650, -1168, -229, 258370, 594440, -38080
411691, -581, -1107, -175, 318570, 499730, -75530
411711, -515, -1065, -139, 340480, 428260, -93730
411731, -521, -1101, -162, 278810, 397460, -73430
411751, -559, -1160, -188, 205660, 364980, -24500
411771, -579, -1206, -191, 202860, 289520, 6930
411791, -568, -1221, -165, 253330, 183260, 1470
411811, -554, -1267, -143, 276220, 101010, -29890
411831, -571, -1349, -164, 228480, 63280, -52360
411851, -617, -1398, -184, 155050, 31570, -34860
411871, -616, -1347, -170, 120190, -26460, -3780
411891, -567, -1248, -164, 109760, -93730, -13370
411911, -539, -1185, -167, 83090, -146370, -51870
411931, -537, -1152, -174, 57400, -203700, -70000
411951, -533, -1110, -166, 47320, -273000, -67830
411971, -515, -1074, -159, 28910, -326130, -79450
411991, -518, -1068, -182, -26600, -344400, -110880
412011, -534, -1053, -201, -92050, -358400, -127330
412031, -527, -987, -192, -113330, -405440, -119210
412051, -493, -898, -179, -108290, -463260, -121450
412071, -465, -836, -180, -133560, -491190, -150430
412091, -459, -809, -195, -195090, -490140, -181300
412111, -475, -800, -209, -242900, -502810, -181720
412131, -477, -780, -208, -251720, -544460, -156310
412151, -480, -763, -212, -245490, -592410, -133420
412171, -492, -757, -228, -258650, -622790, -123060
412191, -491, -739, -239, -292040, -633290, -121450
412211, -479, -701, -244, -321580, -650790, -149730
412231, -461, -659, -243, -315210, -667730, -159180
412251, -467, -652, -249, -305200, -690270, -153930
412271, -476, -653, -254, -290920, -715960, -145040
412291, -472, -648, -256, -280700, -729890, -150920
412311, -468, -658, -241, -292670, -713370, -176820
412331, -483, -726, -245, -329560, -672420, -205520
412351, -525, -833, -261, -360150, -641550, -214970
412371, -569, -948, -271, -362320, -634410, -204960
412391, -579, -1023, -269, -345450, -642110, -190610
412411, -575, -1069, -263, -346710, -633500, -172200
412431, -587, -1111, -273, -379540, -599200, -143990
412451, -583, -1115, -284, -407190, -567070, -107520
412471, -560, -1096, -276, -397670, -555870, -69370
412491, -552, -1103, -268, -372120, -548520, -34020
412511, -563, -1138, -267, -352100, -534590, 2030
412531, -584, -1195, -274, -340900, -509320, 27300
412551, -574, -1217, -268, -321510, -483210, 33250
412571, -555, -1213, -262, -284340, -468160, 34160
412591, -544, -1194, -254, -241500, -462770, 52780
412611, -536, -1173, -247, -201110, -459620, 82810
412631, -529, -1158, -245, -177030, -439110, 97860
412651, -511, -1145, -243, -162890, -403550, 87430
412671, -491, -1136, -239, -141400, -370510, 67340
412691, -473, -1114, -232, -110390, -345590, 56980
412711, -459, -1088, -224, -76020, -322700, 53830
412731, -438, -1059, -215, -51310, -290360, 47110
412751, -416, -1028, -203, -34580, -251020, 36890
412771, -385, -988, -197, -17010, -214130, 33950
412791, -369, -940, -180, 770, -181160, 41230
412811, -358, -902, -175, 8470, -138390, 52080
412831, -354, -878, -179, 5460, -89600, 56280
412851, -335, -843, -173, 5670, -39970, 49560
412871, -315, -804, -167, 23170, -490, 36750
412891, -292, -761, -151, 48020, 32200, 30940
412911, -290, -742, -149, 64750, 65660, 37800
412931, -305, -742, -156, 63630, 108500, 52290
412951, -318, -748, -163, 52570, 157920, 60830
412971, -326, -752, -168, 52010, 201600, 56980
412991, -333, -760, -165, 68670, 236110, 42210
413011, -352, -787, -165, 92610, 265020, 27090
413031, -375, -824, -172, 110950, 293580, 17990
413051, -405, -874, -186, 119420, 324520, 11830
413071, -433, -921, -197, 123970, 357000, 3430
413091, -459, -966, -203, 137480, 383530, -7070
413111, -490, -1016, -217, 182000, 418810, -26390
413131, -507, -1049, -227, 202510, 436030, -37380
413151, -513, -1061, -234, 227990, 449610, -45640
413171, -512, -1062, -235, 258860, 454930, -40250
413191, -524, -1075, -239, 283990, 456400, -20090
413211, -540, -1087, -249, 297080, 463190, -700
413231, -536, -1085, -250, 310730, 469770, 9100
413251, -520, -1071, -244, 331240, 467740, 21560
413271, -519, -1073, -234, 347270, 460320, 50400
413291, -535, -1100, -232, 346150, 455770, 91140
413311, -555, -1128, -230, 331520, 455210, 127120
413331, -560, -1136, -225, 315000, 452130, 150360
413351, -549, -1120, -215, 297570, 443310, 161770
413371, -527, -1086, -203, 274470, 435260, 166530
413391, -507, -1051, -190, 245910, 429240, 171220
413411, -497, -1023, -181, 216090, 421050, 180320
413431, -496, -1014, -178, 187530, 410620, 189560
413451, -495, -1010, -173, 160020, 401450, 187390
413471, -484, -1002, -170, 137760, 392420, 169120
413491, -466, -976, -160, 122780, 380660, 142030
413511, -444, -943, -152, 111300, 365540, 118860
413531, -430, -915, -147, 97860, 348880, 105070
413551, -418, -890, -144, 81620, 333060, 94780
413571, -408, -873, -140, 67830, 316820, 80570
413591, -394, -858, -134, 61040, 297220, 61740
413611, -382, -839, -129, 60900, 272930, 42630
413631, -372, -823, -122, 63000, 245280, 27790
413651, -362, -808, -116, 64680, 216160, 17570
413671, -353, -797, -113, 66920, 185430, 9870
413691, -351, -794, -111, 68530, 154280, 3850
413711, -354, -807, -109, 66710, 124740, -1330
413731, -369, -839, -116, 60970, 97510, -6860
413751, -384, -878, -120, 55650, 68950, -12390
413771, -400, -919, -124, 57400, 34860, -18340
413791, -414, -955, -126, 64610, -2870, -24360
413811, -419, -977, -128, 68460, -38430, -29540
413831, -426, -992, -133, 61810, -67340, -32270
413851, -431, -993, -137, 47460, -91210, -32620
413871, -438, -992, -141, 33950, -115080, -33670
413891, -450, -1011, -148, 25900, -140350, -40670
413911, -468, -1049, -158, 23940, -167720, -53830
413931, -483, -1089, -167, 26390, -196980, -68810
413951, -498, -1132, -172, 25830, -224140, -83930
413971, -509, -1164, -181, 15750, -243740, -96390
413991, -517, -1169, -187, -2380, -256830, -103810
414011, -512, -1138, -192, -33810, -281750, -108710
414031, -500, -1091, -189, -43680, -293160, -118300
414051, -485, -1050, -185, -54600, -299740, -135660
414071, -475, -1030, -181, -67340, -303380, -153720
414091, -474, -1041, -183, -81060, -307090, -163800
414111, -484, -1071, -185, -93520, -314440, -160370
414131, -501, -1102, -188, -106680, -322000, -148540
414151, -507, -1107, -188, -122290, -326340, -139090
414171, -494, -1073, -185, -139510, -326410, -137480
414191, -469, -1016, -179, -157010, -323330, -142660
414211, -440, -949, -174, -172480, -320880, -145530
414231, -407, -881, -168, -181300, -323260, -139790
414251, -391, -838, -163, -183680, -328860, -128030
414271, -378, -811, -161, -183120, -334530, -113820
414291, -376, -801, -163, -180600, -339220, -101710
414311, -375, -804, -163, -178920, -340060, -93520
414331, -378, -817, -166, -176400, -338800, -88340
414351, -381, -833, -168, -172340, -336770, -82250
414371, -387, -847, -171, -166880, -333900, -75180
414391, -388, -853, -172, -159530, -330050, -69720
414411, -386, -853, -176, -153020, -321230, -70630
414431, -379, -844, -175, -146020, -308490, -77560
414451, -369, -831, -172, -133700, -297080, -83650
414471, -359, -819, -169, -116900, -288050, -84840
414491, -357, -826, -168, -101430, -277270, -83160
414511, -367, -857, -173, -90650, -261030, -81550
414531, -389, -907, -178, -82810, -239260, -82810
414551, -407, -959, -184, -68600, -219520, -87500
414571, -426, -1017, -185, -49350, -201390, -95760
414591, -437, -1056, -188, -35490, -178220, -106120
414611, -440, -1081, -187, -28000, -150920, -112630
414631, -442, -1087, -189, -22470, -122990, -111930
414651, -437, -1077, -188, -15610, -96320, -105490
414671, -434, -1064, -189, -7210, -69160, -99120
414691, -436, -1060, -195, -1400, -37240, -98350
414711, -437, -1063, -195, 10990, -7350, -101920
414731, -437, -1069, -193, 36400, 14980, -106960
414751, -439, -1085, -192, 65940, 34580, -108920
414771, -449, -1110, -195, 84560, 60130, -105210
414791, -462, -1130, -204, 90230, 92120, -94570
414811, -467, -1120, -205, 96950, 121870, -80150
414831, -454, -1085, -204, 112350, 145320, -67270
414851, -437, -1036, -202, 131320, 166250, -59710
414871, -418, -995, -196, 149240, 187600, -55860
414891, -411, -971, -192, 166950, 206920, -48860
414911, -416, -978, -194, 191940, 240450, -11480
414931, -432, -995, -195, 195580, 258720, 9240
414951, -441, -1004, -195, 198800, 275520, 25270
414971, -434, -983, -190, 204960, 287980, 39620
414991, -419, -940, -184, 208880, 298690, 55090
415011, -408, -894, -177, 204890, 312830, 68250
415031, -393, -847, -173, 196210, 329000, 75810
415051, -378, -806, -167, 188020, 343840, 78330
415071, -366, -774, -159, 180390, 356720, 80220
415091, -365, -765, -159, 170590, 367780, 85680
415111, -379, -782, -160, 159180, 376600, 92680
415131, -403, -823, -163, 151270, 381010, 93660
415151, -420, -859, -165, 150850, 380660, 84420
415171, -435, -889, -162, 153930, 378140, 65520
415191, -441, -908, -159, 150780, 379190, 40110
415211, -437, -911, -156, 142310, 380660, 14840
415231, -429, -900, -150, 137060, 375620, -2310
415251, -421, -890, -147, 136640, 362880, -8960
415271, -419, -887, -148, 137270, 346640, -11550
415291, -425, -899, -149, 139370, 328790, -16590
415311, -434, -926, -150, 146580, 307790, -25830
415331, -445, -964, -150, 159390, 281680, -35000
415351, -459, -1014, -152, 171150, 253470, -41720
415371, -469, -1053, -156, 174650, 229320, -47810
415391, -474, -1082, -157, 169890, 209790, -52920
415411, -474, -1097, -156, 161910, 190190, -52570
415431, -471, -1093, -156, 154910, 165620, -43610
415451, -467, -1077, -153, 148820, 136850, -30030
415471, -464, -1065, -151, 141750, 108710, -22680
415491, -459, -1063, -146, 136010, 80850, -26250
415511, -457, -1073, -142, 133770, 49630, -33740
415531, -461, -1089, -140, 128520, 18060, -37310
415551, -470, -1111, -142, 110320, -6440, -36120
415571, -473, -1109, -147, 82600, -24920, -34090
415591, -456, -1068, -142, 61390, -47250, -33670
415611, -441, -1022, -136, 53270, -79030, -33600
415631, -426, -980, -132, 46760, -112560, -33810
415651, -412, -944, -131, 32270, -139300, -38500
415671, -401, -914, -128, 11970, -160370, -47180
415691, -391, -888, -126, -9940, -178710, -56280
415711, -394, -882, -131, -32130, -196210, -61320
415731, -402, -889, -137, -51520, -216160, -59920
415751, -407, -892, -143, -64050, -240730, -55580
415771, -406, -886, -144, -70280, -266770, -55020
415791, -397, -870, -142, -78260, -287980, -67620
415811, -391, -855, -145, -117320, -309680, -65660
415831, -392, -845, -149, -133980, -322280, -55650
415851, -393, -832, -156, -140350, -339850, -45290
415871, -393, -823, -158, -140490, -357140, -41650
415891, -395, -823, -162, -140770, -370160, -43820
415911, -400, -837, -167, -141400, -380730, -47390
415931, -407, -857, -175, -139300, -392210, -47530
415951, -413, -880, -179, -134470, -403480, -43470
415971, -425, -910, -185, -130480, -411250, -35490
415991, -446, -944, -195, -126980, -415590, -26320
416011, -461, -971, -203, -120470, -418110, -24430
416031, -461, -978, -203, -111020, -416010, -38010
416051, -449, -970, -202, -102970, -407050, -62020
416071, -442, -968, -203, -98000, -394380, -80780
416091, -445, -982, -207, -89950, -385560, -83860
416111, -456, -1010, -211, -76090, -379750, -78890
416131, -466, -1045, -216, -61670, -369390, -79590
416151, -476, -1086, -217, -52780, -349790, -90370
416171, -477, -1113, -218, -48090, -323610, -104160
416191, -474, -1123, -214, -43750, -295610, -113330
416211, -470, -1124, -215, -43190, -264600, -115290
416231, -460, -1104, -212, -44590, -231140, -113190
416251, -441, -1066, -209, -37800, -201320, -110110
416271, -418, -1025, -199, -21490, -175700, -108290
416291, -398, -996, -190, -3850, -149870, -107380
416311, -396, -995, -189, 4270, -117880, -104160
416331, -400, -1011, -191, 4270, -80150, -97580
416351, -407, -1022, -192, 10780, -46620, -87570
416371, -400, -1009, -190, 27860, -19950, -75810
416391, -385, -975, -180, 49980, 3500, -64540
416411, -373, -940, -178, 63980, 32060, -54810
416431, -361, -908, -175, 67830, 66220, -44660
416451, -353, -880, -172, 72240, 98560, -33320
416471, -345, -852, -171, 82040, 125860, -21210
416491, -340, -836, -166, 94640, 150220, -8680
416511, -342, -830, -166, 107730, 172550, 5390
416531, -350, -838, -165, 119560, 193130, 22120
416551, -366, -858, -166, 129220, 212380, 40320
416571, -380, -871, -167, 134050, 232960, 55230
416591, -384, -872, -167, 132020, 257110, 62580
416611, -384, -864, -167, 125300, 283220, 62370
416631, -379, -850, -165, 118790, 307020, 59920
416651, -379, -837, -166, 115920, 324800, 62370
416671, -390, -846, -165, 114170, 337820, 70770
416691, -410, -874, -168, 107870, 359870, 77280
416711, -434, -919, -172, 104090, 371140, 64820
416731, -457, -964, -175, 103460, 379960, 45080
416751, -476, -1010, -177, 105560, 384650, 24010
416771, -485, -1041, -177, 106120, 387380, 4760
416791, -484, -1049, -174, 106330, 387030, -8610
416811, -483, -1044, -171, 106050, 382970, -14070
416831, -485, -1040, -170, 103250, 377160, -17430
416851, -482, -1030, -170, 104580, 367430, -25690
416871, -475, -1021, -167, 114800, 352520, -39970
416891, -469, -1022, -162, 129920, 332920, -52920
416911, -472, -1040, -160, 142310, 310870, -58100
416931, -482, -1070, -159, 145530, 291480, -58030
416951, -487, -1083, -157, 142800, 274260, -57400
416971, -476, -1071, -155, 138880, 255780, -57750
416991, -464, -1048, -150, 135310, 234710, -57890
417011, -452, -1025, -149, 136780, 207690, -53830
417031, -430, -991, -138, 144340, 174230, -47740
417051, -409, -952, -123, 148120, 141610, -42630
417071, -405, -942, -122, 131040, 122500, -37170
417091, -412, -952, -126, 94780, 116340, -34230
417111, -411, -954, -132, 67130, 102970, -33600
417131, -402, -941, -125, 69300, 67690, -30100
417151, -391, -921, -113, 83720, 23100, -24290
417171, -383, -909, -109, 78190, -8610, -19390
417191, -380, -896, -110, 48650, -24500, -16870
417211, -375, -874, -111, 15050, -36400, -16730
417231, -365, -849, -109, -6580, -55230, -17500
417251, -360, -836, -112, -20300, -78400, -19040
417271, -359, -834, -112, -32760, -101990, -20720
417291, -369, -851, -118, -41230, -127820, -19670
417311, -376, -872, -116, -44520, -156870, -13650
417331, -384, -892, -117, -50540, -182420, -7350
417351, -397, -915, -124, -70350, -197050, -1960
417371, -418, -943, -139, -99050, -204680, 4970
417391, -430, -956, -148, -119420, -216860, 12250
417411, -428, -953, -150, -120540, -239330, 13860
417431, -423, -948, -149, -110110, -265580, 8540
417451, -419, -949, -151, -105350, -284550, 2030
417471, -424, -951, -158, -110250, -297220, 4550
417491, -426, -945, -165, -116410, -310520, 18270
417511, -430, -942, -168, -117320, -325570, 33950
417531, -438, -949, -176, -115640, -336630, 40530
417551, -447, -971, -183, -112980, -342370, 34160
417571, -457, -1003, -188, -106680, -345870, 16660
417591, -463, -1046, -192, -74760, -361480, -12880
417611, -478, -1090, -196, -64680, -366520, -11690
417631, -498, -1132, -204, -62650, -365820, -2450
417651, -513, -1150, -208, -59920, -362110, 2800
417671, -507, -1135, -207, -57610, -352030, -7420
417691, -481, -1091, -203, -59920, -333550, -30800
417711, -450, -1035, -200, -62930, -311850, -52710
417731, -423, -985, -196, -55090, -297500, -61810
417751, -403, -944, -186, -35910, -291410, -60200
417771, -385, -917, -177, -23100, -279510, -57330
417791, -377, -909, -176, -23590, -255780, -56280
417811, -381, -921, -177, -28210, -226940, -54740
417831, -387, -943, -181, -26740, -201040, -52010
417851, -392, -963, -179, -19250, -176960, -50750
417871, -394, -977, -178, -12950, -149170, -51660
417891, -386, -968, -178, -8260, -119700, -50330
417911, -368, -931, -172, 1050, -94570, -42210
417931, -345, -881, -158, 12810, -72030, -29190
417951, -330, -846, -154, 18060, -45360, -16100
417971, -328, -830, -155, 15120, -13160, -4620
417991, -330, -836, -158, 13090, 18550, 4760
418011, -339, -847, -160, 22890, 42140, 12880
418031, -345, -868, -155, 41790, 59150, 21140
418051, -354, -882, -152, 56140, 78190, 30310
418071, -365, -900, -155, 56980, 104650, 39830
418091, -376, -914, -159, 48300, 135590, 48930
418111, -383, -921, -162, 41370, 163310, 56980
418131, -388, -923, -161, 41090, 185010, 62370
418151, -394, -927, -162, 43890, 203840, 62650
418171, -396, -930, -161, 46690, 221550, 59710
418191, -400, -933, -162, 49630, 237160, 58030
418211, -409, -945, -161, 52220, 249760, 60620
418231, -429, -971, -165, 49700, 263270, 62580
418251, -447, -1003, -171, 41020, 280700, 55650
418271, -453, -1025, -173, 35350, 296940, 38710
418291, -452, -1031, -167, 38990, 306040, 20370
418311, -459, -1040, -167, 48160, 307300, 11550
418331, -473, -1060, -169, 53830, 305340, 12530
418351, -482, -1071, -169, 52360, 306040, 11060
418371, -478, -1068, -167, 51030, 307720, -1890
418391, -464, -1054, -162, 54670, 306460, -22260
418411, -460, -1042, -160, 61530, 300300, -37520
418431, -458, -1040, -158, 67550, 290430, -41650
418451, -457, -1037, -154, 72240, 278110, -39060
418471, -451, -1026, -151, 78960, 262570, -36330
418491, -443, -1006, -147, 82040, 235690, -40810
418511, -432, -989, -145, 79100, 223230, -44170
418531, -416, -963, -141, 80430, 206360, -45570
418551, -400, -933, -133, 85190, 185430, -43960
418571, -387, -907, -126, 86450, 164990, -38430
418591, -380, -896, -121, 79380, 148680, -29540
418611, -382, -896, -122, 67550, 133840, -19530
418631, -384, -896, -123, 59920, 115220, -12810
418651, -380, -895, -119, 58170, 93030, -11760
418671, -375, -890, -116, 55720, 71680, -13860
418691, -371, -889, -114, 46130, 53830, -13440
418711, -371, -889, -114, 31780, 37030, -7910
418731, -370, -887, -115, 19530, 17290, 2240
418751, -368, -876, -114, 10850, -4480, 11900
418771, -365, -865, -112, 490, -23310, 15820
418791, -358, -850, -113, -11340, -39830, 16030
418811, -356, -842, -113, -21280, -56840, 16170
418831, -358, -848, -114, -28700, -75250, 18620
418851, -370, -874, -120, -34020, -95130, 23730
418871, -389, -921, -125, -40390, -113330, 29330
418891, -412, -973, -131, -47950, -129640, 35210
418911, -437, -1023, -141, -55860, -145600, 42560
418931, -452, -1049, -149, -62790, -161770, 49000
418951, -449, -1037, -150, -66500, -177800, 49350
418971, -431, -1002, -151, -69090, -190890, 41720
418991, -415, -971, -150, -72520, -200970, 32550
419011, -411, -962, -152, -74620, -212240, 31360
419031, -425, -982, -160, -71750, -226730, 39130
419051, -447, -1027, -165, -63840, -242830, 49770
419071, -464, -1067, -170, -56770, -254450, 52290
419091, -472, -1089, -173, -55160, -258510, 44100
419111, -470, -1091, -176, -56070, -258860, 32900
419131, -461, -1067, -178, -56490, -259210, 24570
419151, -443, -1025, -176, -55510, -259420, 18830
419171, -421, -985, -173, -53620, -256900, 12670
419191, -409, -961, -171, -47810, -254590, 7770
419211, -406, -950, -170, -37310, -254730, 6510
419231, -403, -955, -167, -29890, -251300, 5320
419251, -408, -969, -169, -29400, -240310, 1330
419271, -413, -979, -171, -33810, -223020, -5460
419291, -402, -968, -170, -36890, -205310, -12460
419311, -391, -946, -165, -32970, -191590, -16310
419331, -378, -923, -160, -26250, -178430, -16660
419351, -365, -899, -158, -22890, -162330, -14770
419371, -358, -881, -155, -23170, -143640, -11690
419391, -353, -875, -152, -22470, -104510, -5950
419411, -354, -880, -151, -20930, -85120, -1540
419431, -359, -892, -153, -21070, -64680, 3710
419451, -362, -900, -154, -17990, -45570, 8120
419471, -358, -897, -152, -12950, -26460, 10220
419491, -354, -886, -149, -10360, -5740, 12670
419511, -348, -874, -147, -11900, 16520, 17990
419531, -352, -876, -150, -15400, 39480, 24990
419551, -360, -888, -151, -15540, 59990, 30870
419571, -371, -912, -153, -11200, 77490, 33740
419591, -383, -938, -155, -4550, 93380, 33950
419611, -399, -970, -157, 1120, 108920, 33880
419631, -409, -992, -157, 2170, 126000, 34510
419651, -416, -999, -158, -350, 143710, 34370
419671, -418, -1000, -159, -3780, 161000, 31150
419691, -419, -994, -157, -6300, 176680, 25340
419711, -418, -991, -155, -6300, 188650, 20370
419731, -421, -995, -155, -3500, 196420, 16940
419751, -428, -1005, -156, 2310, 200340, 14070
419771, -435, -1019, -154, 8750, 202370, 9590
419791, -443, -1036, -155, 12110, 205310, 2170
419811, -449, -1050, -157, 12180, 209720, -7070
419831, -450, -1053, -158, 11970, 212940, -15470
419851, -444, -1036, -154, 14140, 212520, -21070
419871, -432, -1010, -151, 18690, 208320, -24220
419891, -422, -988, -148, 23660, 202580, -26460
419911, -417, -973, -145, 28070, 195860, -28700
419931, -413, -962, -144, 30870, 189280, -31920
419951, -408, -962, -141, 33950, 181650, -35210
419971, -410, -966, -141, 38850, 171430, -36330
419991, -411, -972, -138, 42420, 160300, -36050
420011, -412, -975, -137, 44590, 148470, -34230
420031, -408, -968, -135, 45990, 135450, -30030
420051, -399, -947, -133, 45010, 122850, -26040
420071, -384, -911, -127, 42140, 110880, -23730
420091, -369, -877, -124, 38640, 99400, -22680
420111, -354, -851, -121, 34930, 88130, -21420
420131, -348, -836, -118, 33110, 74900, -18130
420151, -349, -840, -120, 32550, 60130, -12320
420171, -358, -863, -122, 31780, 45150, -4060
420191, -372, -893, -122, 30310, 29540, 6860
420211, -381, -916, -126, 27230, 14560, 16170
420231, -388, -928, -126, 22750, 1470, 20790
420251, -389, -929, -126, 17150, -10290, 22680
420271, -382, -919, -128, 9800, -31990, 22050
420291, -376, -901, -125, -1820, -44800, 24010
420311, -372, -897, -124, -4760, -58870, 30730
420331, -378, -911, -130, -8050, -73640, 41300
420351, -398, -944, -135, -9730, -88270, 50890
420371, -413, -979, -140, -9590, -101360, 53970
420391, -431, -1023, -145, -10150, -112000, 50120
420411, -440, -1049, -150, -13580, -120050, 43540
420431, -439, -1053, -154, -18620, -126910, 38990
420451, -431, -1030, -152, -21840, -134960, 40530
420471, -416, -994, -149, -22750, -144270, 45920
420491, -407, -967, -149, -23520, -151830, 49980
420511, -408, -962, -151, -22050, -157990, 49980
420531, -417, -989, -154, -17640, -163940, 45990
420551, -435, -1033, -160, -12810, -168910, 39200
420571, -446, -1072, -165, -10080, -171010, 31850
420591, -454, -1090, -166, -11900, -169470, 27720
420611, -444, -1066, -165, -15050, -167440, 29050
420631, -426, -1010, -163, -17010, -164920, 31080
420651, -401, -952, -156, -18550, -159740, 27090
420671, -377, -901, -151, -18690, -152320, 17500
420691, -362, -874, -147, -17920, -143990, 8470
420711, -359, -874, -148, -14420, -138110, 5670
420731, -374, -910, -150, -8820, -134400, 8820
420751, -392, -946, -154, -4900, -128030, 12530
420771, -398, -971, -153, -3780, -117460, 12600
420791, -395, -968, -153, -6370, -103040, 9310
420811, -386, -946, -150, -12600, -85820, 5950
420831, -374, -915, -147, -18970, -68600, 4550
420851, -360, -882, -145, -21910, -53340, 3710
420871, -348, -861, -143, -21770, -39270, 1960
420891, -342, -846, -138, -18410, -27300, 1400
420911, -345, -854, -137, -14350, -16940, 5390
420931, -358, -876, -141, -13510, -5460, 12530
420951, -374, -909, -143, -14980, 7420, 17920
420971, -380, -932, -148, -17990, 23240, 16590
420991, -382, -937, -146, -20230, 39900, 9870
421011, -382, -935, -145, -20230, 53970, 4830
421031, -383, -932, -144, -20720, 66500, 4760
421051, -386, -931, -144, -21140, 77490, 7490
421071, -391, -945, -145, -21000, 87640, 8470
421091, -402, -966, -145, -21350, 97930, 5740
421111, -416, -1000, -149, -20720, 106610, 2590
421131, -434, -1036, -155, -20860, 114730, -210
421151, -443, -1057, -158, -20650, 121800, -3920
421171, -440, -1059, -153, -14490, 130830, -17010
421191, -430, -1036, -151, -14420, 134960, -19530
421211, -424, -1010, -148, -18130, 138740, -17850
421231, -416, -985, -147, -22610, 142940, -20090
421251, -406, -965, -144, -18900, 142870, -27370
421271, -401, -954, -141, -9170, 138110, -34790
421291, -402, -968, -143, -1890, 132650, -37870
421311, -415, -996, -144, 2730, 126490, -34930
421331, -430, -1024, -146, 5460, 120330, -30170
421351, -437, -1034, -147, 6230, 115080, -29120
421371, -428, -1016, -144, 5740, 110530, -32760
421391, -413, -985, -142, 2520, 108150, -39690
421411, -395, -949, -137, 840, 103460, -43750
421431, -384, -921, -134, 4480, 93030, -42280
421451, -372, -897, -131, 9590, 81200, -38850
421471, -370, -889, -127, 13790, 69650, -33390
421491, -371, -896, -128, 14910, 59360, -26180
421511, -382, -917, -130, 12880, 50470, -19180
421531, -387, -924, -132, 12740, 40040, -13650
421551, -380, -915, -131, 14420, 29330, -12530
421571, -368, -891, -125, 14140, 20580, -14630
421591, -357, -865, -125, 11620, 12040, -13370
421611, -350, -847, -124, 7910, 3290, -7910
421631, -347, -839, -124, 6370, -7070, -1050
421651, -353, -850, -125, 7560, -18970, 5600
421671, -365, -883, -129, 8400, -30100, 10710
421691, -387, -930, -135, 10080, -42280, 16660
421711, -410, -979, -140, 13790, -56560, 23380
421731, -423, -1011, -144, 14910, -67900, 25690
421751, -421, -1015, -144, 12250, -75250, 24080
421771, -412, -996, -146, 5390, -79310, 22470
421791, -401, -962, -144, -3850, -81830, 23940
421811, -391, -933, -143, -7420, -88550, 29330
421831, -385, -921, -144, -4690, -97580, 31920
421851, -387, -933, -145, 770, -105420, 28280
421871, -400, -968, -147, 7840, -113330, 24500
421891, -422, -1017, -152, 13160, -120540, 26250
421911, -441, -1061, -158, 14910, -126140, 33810
421931, -454, -1081, -163, 11830, -127890, 40180
421951, -443, -1060, -164, 3850, -123130, 36400
421971, -419, -1008, -158, 0, -118580, 25130
421991, -399, -965, -155, 3080, -118650, 16100
422011, -384, -936, -151, 6370, -119840, 14140
422031, -383, -930, -151, 8400, -119490, 16730
422051, -389, -945, -154, 9940, -116900, 19320
422071, -401, -973, -155, 14840, -110040, 23100
422091, -411, -993, -157, 14630, -102830, 23030
422111, -419, -1003, -159, 10710, -91210, 17430
422131, -408, -988, -157, 7000, -77910, 6650
422151, -385, -946, -152, 5880, -65590, -2590
422171, -363, -901, -145, 7840, -57190, -1050
422191, -351, -866, -141, 9170, -50680, 10430
422211, -352, -859, -143, 8050, -42000, 21210
422231, -355, -865, -143, 8260, -31500, 23730
422251, -362, -877, -143, 10780, -20090, 18410
422271, -367, -899, -145, 11900, -7420, 10640
422291, -375, -919, -143, 11970, 4340, 7560
422311, -381, -935, -145, 10220, 15680, 8960
422331, -381, -931, -144, 5390, 28840, 10360
422351, -374, -914, -143, 1540, 41300, 11200
422371, -368, -897, -140, -1680, 52500, 12390
422391, -367, -889, -138, -4760, 62510, 14000
422411, -375, -899, -144, -5740, 71190, 12810
422431, -386, -923, -143, -4900, 79800, 5670
422451, -391, -947, -142, -910, 86240, -2520
422471, -398, -967, -142, 2030, 91070, -5320
422491, -406, -978, -144, -1680, 97650, -1540
422511, -410, -976, -144, -8610, 104860, 3220
422531, -407, -964, -145, -13510, 111510, 1400
422551, -403, -954, -142, -13510, 115710, -7840
422571, -400, -955, -142, -10640, 117670, -19250
422591, -404, -967, -142, -9240, 119350, -28000
422611, -410, -984, -143, -7490, 118650, -30520
422631, -425, -1011, -144, -3780, 114240, -27370
422651, -437, -1036, -147, -2660, 110600, -24570
422671, -445, -1055, -150, -5320, 109900, -26880
422691, -443, -1053, -149, -8400, 110110, -35000
422711, -427, -1022, -143, -7910, 107660, -43680
422731, -410, -985, -138, -4060, 100590, -46340
422751, -396, -948, -135, -3220, 93310, -43260
422771, -390, -931, -134, -6090, 87990, -39410
422791, -389, -929, -134, -7910, 82530, -38500
422811, -390, -938, -135, -6090, 74900, -40390
422831, -400, -959, -137, -1680, 64890, -41650
422851, -409, -981, -138, 1750, 54460, -40110
422871, -414, -992, -137, 2800, 44450, -36540
422891, -410, -983, -137, 1540, 35350, -32620
422911, -396, -952, -133, -980, 26670, -30240
422931, -381, -914, -130, -6790, 20720, -29890
422951, -366, -880, -130, -14210, 15610, -28910
422971, -353, -848, -127, -14000, -4060, -25410
422991, -344, -829, -124, -7630, -16730, -24570
423011, -340, -827, -122, -4130, -27650, -20930
423031, -348, -848, -124, -4130, -37380, -12180
423051, -369, -884, -129, -5950, -46550, -910
423071, -383, -919, -134, -6860, -55370, 7350
423091, -398, -951, -137, -7000, -63070, 9660
423111, -405, -965, -139, -8330, -68740, 6020
423131, -401, -962, -142, -9660, -74200, 700
423151, -391, -943, -141, -9870, -80430, -2240
423171, -382, -924, -139, -7700, -88830, 700
423191, -381, -919, -140, -6720, -96950, 8960
423211, -387, -929, -144, -7980, -102270, 17150
423231, -391, -940, -146, -6440, -107450, 22680
423251, -397, -949, -147, -1610, -112490, 23800
423271, -396, -953, -149, 3430, -116270, 21280
423291, -398, -956, -150, 6020, -117530, 17990
423311, -401, -963, -153, 4760, -115290, 13860
423331, -404, -976, -154, 4340, -113050, 10500
423351, -412, -999, -157, 8260, -113890, 10500
423371, -421, -1023, -160, 13860, -116060, 14350
423391, -436, -1051, -162, 17640, -117040, 21000
423411, -444, -1062, -163, 20300, -116550, 24990
423431, -434, -1041, -162, 20650, -112070, 19740
423451, -409, -994, -158, 14980, -100380, 5530
423471, -385, -946, -153, 8120, -87290, -6300
423491, -369, -915, -151, 6370, -79800, -5460
423511, -370, -902, -150, 11690, -78750, 5180
423531, -376, -911, -150, 20930, -79100, 15260
423551, -386, -937, -151, 27300, -74130, 16520
423571, -395, -967, -153, 27300, -62440, 10290
423591, -403, -989, -154, 25060, -49140, 4130
423611, -404, -992, -155, 22680, -37170, 3290
423631, -397, -969, -154, 19110, -25200, 6230
423651, -380, -931, -151, 15960, -13020, 9030
423671, -363, -892, -145, 15120, -1750, 10290
423691, -352, -863, -141, 17150, 7560, 11690
423711, -345, -846, -137, 19460, 16380, 14070
423731, -350, -849, -137, 19180, 26810, 15820
423751, -359, -876, -141, 16590, 39200, 14840
423771, -374, -908, -143, 14840, 51240, 11200
423791, -383, -936, -144, 16730, 60410, 7770
423811, -392, -954, -146, 19320, 67550, 7700
423831, -396, -956, -145, 18270, 75180, 11830
423851, -395, -945, -143, 15190, 82600, 16940
423871, -384, -919, -142, 2940, 104510, 5740
423891, -374, -900, -138, 2590, 111650, -3990
423911, -372, -895, -138, 3150, 115920, -7770
423931, -378, -908, -139, 5460, 116130, -4130
423951, -393, -937, -142, 9170, 113890, 1050
423971, -411, -971, -143, 10220, 114310, -490
423991, -424, -1005, -145, 9030, 116900, -7910
424011, -429, -1020, -146, 5040, 120960, -17570
424031, -428, -1018, -144, -70, 124600, -25760
424051, -418, -997, -144, -1330, 123900, -30870
424071, -406, -967, -140, 140, 120190, -34230
424091, -392, -938, -135, 1260, 115640, -34860
424111, -390, -932, -135, 1120, 110390, -31990
424131, -401, -950, -137, -350, 105000, -28840
424151, -414, -978, -139, 1120, 97440, -29190
424171, -425, -1004, -139, 5110, 88970, -34790
424191, -426, -1015, -141, 7000, 82320, -43400
424211, -419, -1006, -138, 6090, 75810, -47250
424231, -408, -980, -135, 1960, 69090, -44800
424251, -397, -951, -133, -3010, 61460, -38290
424271, -388, -922, -131, -7000, 52780, -33320
424291, -377, -903, -131, -10430, 45780, -35280
424311, -371, -889, -129, -9310, 36610, -39200
424331, -371, -896, -127, -4340, 23520, -38710
424351, -378, -914, -130, -1470, 10220, -33180
424371, -388, -937, -132, -1050, -2450, -24640
424391, -394, -951, -134, -4620, -11270, -19040
424411, -395, -947, -132, -10920, -17220, -17430
424431, -387, -928, -132, -15260, -25060, -15610
424451, -376, -900, -130, -18480, -33320, -14840
424471, -364, -874, -129, -19950, -41720, -15470
424491, -356, -861, -129, -18970, -51170, -15890
424511, -354, -862, -127, -17290, -61110, -14000
424531, -366, -883, -132, -14490, -72870, -6020
424551, -386, -925, -138, -12950, -84210, 5530
424571, -404, -960, -143, -14070, -92540, 14420
424591, -413, -978, -145, -14630, -99260, 16310
424611, -407, -971, -145, -14560, -104020, 10290
424631, -394, -948, -146, -15120, -106960, 1470
424651, -383, -923, -143, -16240, -110040, -2380
424671, -378, -907, -145, -18060, -113120, 630
424691, -378, -907, -147, -16520, -118090, 7770
424711, -386, -928, -150, -11550, -123620, 13930
424731, -399, -959, -151, -5320, -128030, 16730
424751, -415, -996, -156, 4200, -131250, 14840
424771, -429, -1027, -159, 3710, -127540, 9450
424791, -431, -1038, -161, 3500, -123480, 3430
424811, -423, -1027, -160, 2170, -118300, -630
424831, -410, -1002, -157, 2520, -115010, 2240
424851, -404, -977, -156, 5670, -113680, 9520
424871, -396, -957, -155, 9030, -110670, 14070
424891, -390, -942, -152, 12040, -104720, 11480
424911, -386, -940, -154, 13300, -95550, 3850
424931, -386, -948, -154, 14210, -85820, -2240
424951, -388, -957, -155, 16240, -77910, -1470
424971, -391, -960, -157, 17430, -69790, 3780
424991, -385, -944, -152, 17710, -59920, 8190
425011, -377, -924, -152, 17990, -48370, 9240
425031, -369, -906, -149, 17710, -35910, 8680
425051, -363, -892, -146, 17500, -24010, 9030
425071, -364, -891, -147, 17500, -12180, 9730
425091, -371, -906, -149, 17640, -140, 9520
425111, -378, -927, -148, 19810, 10430, 9170
425131, -381, -942, -149, 22960, 19740, 11270
425151, -386, -947, -147, 23730, 29610, 16240
425171, -386, -938, -146, 20930, 40950, 21420
425191, -379, -916, -147, 14490, 55440, 21000
425211, -367, -887, -142, 9310, 70210, 14280
425231, -356, -871, -141, 9310, 81060, 7280
425251, -359, -876, -139, 11690, 88480, 5460
425271, -372, -900, -141, 14840, 92960, 10220
425291, -393, -941, -144, 17430, 96320, 16940
425311, -409, -978, -147, 18690, 100870, 19390
425331, -419, -1001, -148, 17640, 107590, 15050
425351, -419, -1000, -148, 13370, 116340, 6230
425371, -411, -981, -145, 8540, 124390, -2520
425391, -400, -955, -143, 5950, 128800, -8610
425411, -388, -931, -139, 6230, 129710, -12040
425431, -385, -919, -137, 7210, 129220, -13160
425451, -391, -928, -138, 7070, 128170, -11620
425471, -405, -952, -141, 7630, 124950, -8330
425491, -417, -980, -143, 9030, 121030, -9730
425511, -422, -995, -142, 12320, 117110, -18270
425531, -418, -1001, -139, 15750, 113050, -29400
425551, -414, -993, -136, 14420, 110600, -36540
425571, -410, -977, -137, 10500, 106610, -35070
425591, -402, -957, -136, 6440, 100730, -29330
425611, -394, -936, -135, 2730, 94850, -27160
425631, -386, -920, -133, 2380, 87570, -29680
425651, -383, -917, -131, 6860, 69160, -37660
425671, -389, -927, -131, 10570, 56910, -36960
425691, -392, -943, -131, 10080, 47250, -35490
425711, -399, -957, -132, 5810, 39550, -32900
425731, -404, -967, -133, 700, 31150, -27930
425751, -407, -973, -135, -3920, 22050, -23380
425771, -404, -961, -134, -5670, 11550, -21980
425791, -390, -932, -130, -6230, 1470, -24920
425811, -373, -901, -129, -8050, -7280, -29120
425831, -359, -868, -126, -10010, -16730, -28420
425851, -352, -848, -124, -12460, -26460, -22750
425871, -352, -849, -125, -14980, -35980, -15260
425891, -364, -871, -127, -16520, -45360, -9030
425911, -378, -905, -134, -15890, -54740, -4900
425931, -396, -943, -136, -11900, -66080, -420
425951, -409, -977, -140, -8120, -77910, 4060
425971, -415, -991, -140, -9450, -85470, 4550
425991, -405, -971, -140, -15890, -87570, -140
426011, -387, -938, -141, -23940, -87500, -5530
426031, -376, -910, -139, -26740, -92260, -3500
426051, -373, -896, -140, -24990, -100870, 4830
426071, -375, -898, -141, -21420, -108710, 11620
426091, -386, -920, -146, -14350, -116410, 13930
426111, -399, -957, -148, -6160, -122920, 11970
426131, -411, -993, -149, -1120, -126560, 8890
426151, -423, -1018, -154, -1680, -126630, 8890
426171, -427, -1026, -155, -7840, -122990, 10990
426191, -420, -1005, -157, -12880, -119210, 11480
426211, -404, -978, -155, -11410, -117670, 8330
426231, -391, -949, -152, -5600, -117530, 4340
426251, -384, -936, -150, 70, -117320, 3360
426271, -385, -935, -152, 2520, -114520, 4900
426291, -388, -942, -151, 5320, -111020, 7000
426311, -391, -953, -153, 7700, -105770, 7700
426331, -398, -966, -156, 7140, -97230, 6580
426351, -400, -970, -157, 6720, -88200, 5880
426371, -399, -971, -157, 7980, -79590, 4550
426391, -388, -954, -152, 10570, -70770, 1820
426411, -379, -934, -150, 13860, -62020, -280
426431, -371, -914, -147, 13580, -51030, 560
426451, -367, -896, -146, 11480, -39690, 5320
426471, -366, -892, -145, 9730, -28350, 9800
426491, -365, -890, -147, 9520, -16800, 10290
426511, -366, -900, -147, 13370, -7000, 7770
426531, -370, -909, -145, 17220, 2800, 5460
426551, -373, -916, -144, 22540, 20440, 12110
426571, -375, -918, -144, 20370, 31710, 15960
426591, -380, -921, -145, 14770, 45710, 15750
426611, -382, -928, -145, 10150, 59220, 12390
426631, -385, -932, -145, 10850, 68110, 10220
426651, -385, -932, -144, 13650, 74410, 9730
426671, -384, -928, -144, 15750, 80500, 9170
426691, -381, -922, -141, 16030, 87290, 8190
426711, -381, -921, -140, 13580, 94850, 7840
426731, -385, -927, -142, 10990, 100520, 9450
426751, -393, -939, -143, 7770, 106260, 8610
426771, -397, -944, -145, 4970, 112630, 2520
426791, -392, -941, -142, 7910, 114660, -4550
426811, -393, -944, -140, 13020, 113260, -8190
426831, -400, -953, -139, 14280, 112280, -7770
426851, -409, -967, -141, 10920, 113330, -6930
426871, -414, -980, -144, 5600, 116130, -9940
426891, -413, -984, -142, 3920, 116340, -15680
426911, -409, -976, -140, 5320, 113400, -20440
426931, -403, -961, -138, 6650, 109200, -22890
426951, -398, -950, -137, 7490, 104160, -23660
426971, -398, -946, -135, 8120, 98700, -24710
426991, -395, -944, -134, 8190, 92890, -25830
427011, -397, -946, -134, 5250, 88410, -27090
427031, -398, -948, -135, 1890, 83720, -28280
427051, -398, -947, -135, 2450, 75530, -29330
427071, -394, -939, -133, 5250, 66010, -32410
427091, -387, -932, -129, 7980, 55930, -34580
427111, -388, -936, -130, 6580, 47320, -32550
427131, -391, -940, -131, 1120, 39970, -26460
427151, -394, -939, -133, -4060, 31640, -19460
427171, -391, -932, -131, -6580, 22470, -16520
427191, -386, -923, -131, -6160, 12390, -18620
427211, -380, -918, -130, -6020, 3220, -23940
427231, -377, -913, -128, -6230, -5880, -27370
427251, -378, -915, -128, -5740, -17150, -23730
427271, -380, -921, -131, -8890, -26810, -15400
427291, -388, -924, -133, -14070, -35210, -5390
427311, -391, -933, -135, -17640, -43750, 1470
427331, -392, -934, -135, -19460, -50890, 140
427351, -386, -926, -134, -16450, -60130, -4970
427371, -379, -914, -136, -14280, -68320, -10220
427391, -373, -900, -132, -17010, -73430, -12110
427411, -371, -894, -135, -18480, -80640, -5810
427431, -374, -897, -138, -20160, -87780, 3080
427451, -381, -912, -140, -19460, -99750, 11340
427471, -391, -940, -144, -17360, -103460, 8400
427491, -404, -966, -148, -11760, -109340, 6230
427511, -412, -986, -149, -6790, -114940, 5530
427531, -413, -992, -149, -7980, -115220, 3080
427551, -408, -982, -149, -11900, -112560, 1120
427571, -395, -959, -149, -15400, -110040, 2660
427591, -391, -938, -148, -14560, -110810, 8820
427611, -386, -925, -150, -10150, -112630, 13790
427631, -386, -925, -149, -6230, -110740, 10850
427651, -387, -935, -152, -1960, -106960, 2380
427671, -393, -958, -151, 3150, -103460, -4340
427691, -402, -986, -154, 7560, -100800, -3080
427711, -413, -1007, -156, 8400, -97090, 5180
427731, -420, -1010, -157, 4550, -89530, 12460
427751, -408, -985, -156, 1610, -79870, 12040
427771, -388, -940, -151, 1890, -70070, 4830
427791, -366, -897, -145, 2660, -60200, -2730
427811, -357, -880, -144, 3360, -50890, -5180
427831, -357, -877, -145, 5670, -43330, -2730
427851, -360, -889, -146, 10990, -37940, 2730
427871, -368, -909, -147, 17010, -32690, 8960
427891, -380, -925, -146, 20790, -25410, 14420
427911, -386, -937, -148, 19740, -14420, 17150
427931, -380, -924, -148, 14210, 700, 13650
427951, -361, -883, -143, 9030, 17080, 4550
427971, -344, -850, -139, 6860, 31360, -3430
427991, -340, -845, -137, 8260, 40810, -2940
428011, -359, -880, -142, 13650, 44590, 6300
428031, -388, -940, -147, 18340, 47740, 17430
428051, -414, -994, -153, 21840, 52710, 23170
428071, -428, -1027, -152, 24850, 59290, 20510
428091, -425, -1025, -152, 22470, 70210, 10920
428111, -408, -987, -148, 16310, 82740, 350
428131, -381, -929, -144, 9450, 93450, -4200
428151, -366, -883, -137, 4970, 100030, -1680
428171, -360, -865, -135, 6860, 100520, 6020
428191, -366, -878, -136, 8960, 101220, 10990
428211, -383, -912, -142, 10780, 103110, 10150
428231, -408, -970, -144, 16730, 102060, 6300
428251, -429, -1024, -146, 23030, 100380, 140
428271, -440, -1060, -148, 26040, 99820, -6510
428291, -438, -1063, -149, 22680, 102410, -13300
428311, -421, -1020, -144, 13230, 108290, -18200
428331, -404, -968, -140, 6090, 109550, -12600
428351, -391, -917, -140, -490, 100870, 2310
428371, -376, -883, -135, 4340, 96530, -10220
428391, -361, -865, -128, 10710, 93800, -29050
428411, -354, -862, -124, 15890, 87780, -35700
428431, -367, -890, -127, 17360, 78330, -25060
428451, -396, -939, -133, 13930, 70490, -10220
428471, -412, -976, -138, 9800, 65660, -6440
428491, -411, -977, -138, 6650, 63210, -16310
428511, -396, -956, -132, 5250, 59010, -27020
428531, -389, -937, -129, 3290, 51240, -26460
428551, -386, -923, -130, -1470, 42840, -19320
428571, -381, -905, -131, -4130, 34230, -16800
428591, -371, -886, -127, -2520, 25480, -22610
428611, -363, -878, -124, -420, 16730, -29050
428631, -366, -890, -126, -2100, 7560, -25900
428651, -384, -919, -129, -6790, -1960, -14840
428671, -398, -944, -135, -9170, -12320, -6230
428691, -401, -955, -136, -7070, -23030, -7140
428711, -398, -959, -132, -6230, -31290, -13020
428731, -400, -964, -133, -10220, -38220, -13160
428751, -404, -970, -137, -16870, -45640, -5740
428771, -401, -956, -138, -21770, -53410, -140
428791, -383, -919, -132, -21910, -61250, -2730
428811, -368, -887, -130, -21560, -67410, -9100
428831, -362, -872, -130, -22120, -74200, -9940
428851, -363, -870, -130, -21910, -83090, -3500
428871, -370, -885, -136, -22050, -90510, 1680
428891, -380, -908, -137, -21700, -95550, 1540
428911, -393, -945, -142, -19250, -100590, -350
428931, -405, -974, -146, -17010, -106050, 1470
428951, -417, -991, -147, -14980, -112420, 7840
428971, -423, -1002, -147, -14070, -116970, 11900
428991, -415, -993, -151, -17290, -115430, 6090
429011, -400, -970, -148, -22400, -110320, -5670
429031, -389, -946, -147, -23730, -108290, -11200
429051, -392, -942, -147, -19460, -111860, -5390
429071, -398, -951, -150, -13720, -116550, 4130
429091, -401, -964, -151, -11270, -115360, 4690
429111, -398, -968, -152, -10290, -109340, -3710
429131, -393, -962, -150, -7630, -104160, -10220
429151, -393, -951, -149, -5390, -100940, -7490
429171, -388, -936, -150, -7700, -94780, -1050
429191, -377, -915, -150, -12950, -83440, -770
429211, -366, -895, -145, -13300, -72940, -7210
429231, -357, -877, -141, 840, -63490, -10290
429251, -357, -873, -141, 490, -55090, -4480
429271, -357, -870, -144, -4480, -42210, -1820
429291, -350, -855, -142, -7420, -28140, -4900
429311, -343, -839, -136, -5460, -16590, -9170
429331, -346, -848, -136, -4200, -5950, -10710
429351, -371, -905, -144, -12950, 11550, -14140
429371, -387, -956, -159, -21560, 30730, -21210
429391, -387, -974, -166, -10010, 36890, -20370
429411, -369, -937, -144, 35140, 13020, 6930
429431, -369, -901, -122, 68180, -10150, 48300
429451, -391, -905, -134, 35910, 16800, 59360
429471, -400, -913, -152, -28000, 79170, 22820
429491, -379, -908, -157, -56700, 124250, -34020
429511, -345, -889, -153, -27020, 122360, -61110
429531, -334, -887, -139, 35630, 81060, -30030
429551, -378, -950, -135, 78330, 42910, 38920
429571, -455, -1035, -146, 75530, 37940, 93800
429591, -492, -1094, -159, 40810, 66430, 92050
429611, -467, -1072, -165, -1330, 112350, 31360
429631, -416, -1019, -162, -22470, 147210, -40460
429651, -373, -966, -155, -9310, 147910, -63700
429671, -357, -919, -143, 29820, 113960, -22680
429691, -376, -907, -129, 70490, 69930, 49420
429711, -413, -931, -129, 77070, 54250, 94500
429731, -437, -966, -144, 40040, 81060, 81340
429751, -419, -957, -157, -12110, 129780, 19600
429771, -378, -918, -151, -28420, 156940, -45570
429791, -337, -875, -133, 7140, 137970, -62790
429811, -340, -860, -120, 58310, 91000, -22190
429831, -370, -876, -123, 77000, 60340, 37590
429851, -392, -893, -129, 53340, 66290, 67830
429871, -391, -887, -137, 14700, 94360, 51170
429891, -366, -865, -136, -8540, 117740, 7070
429911, -351, -854, -130, -4270, 120260, -26530
429931, -360, -874, -134, 15330, 104090, -27790
429951, -380, -916, -136, 35070, 82460, -8540
429971, -397, -958, -133, 52710, 61950, 12110
429991, -411, -1001, -128, 61110, 50680, 20930
430011, -439, -1048, -140, 43330, 57890, 22120
430031, -475, -1101, -168, 1260, 80150, 21280
430051, -480, -1105, -178, -27580, 93870, 13580
430071, -432, -1032, -153, -8680, 79380, -7840
430091, -372, -932, -123, 41440, 45290, -33320
430111, -332, -847, -110, 65590, 25060, -40320
430131, -330, -807, -116, 3290, 41370, 15120
430151, -348, -810, -127, -19740, 46200, 34090
430171, -376, -862, -136, -15540, 40180, 26110
430191, -402, -936, -144, 7140, 27440, -2380
430211, -410, -994, -144, 31430, 14840, -31360
430231, -404, -1014, -138, 44870, 3220, -34370
430251, -396, -991, -130, 42350, -7070, -5950
430271, -396, -961, -132, 19670, -5880, 26600
430291, -397, -937, -138, -14420, 9520, 35350
430311, -388, -911, -142, -36120, 24500, 19040
430331, -375, -891, -143, -28560, 21840, -1890
430351, -361, -865, -136, 7280, -3920, -8960
430371, -352, -856, -126, 41790, -31500, -4270
430391, -359, -877, -122, 47180, -37590, -560
430411, -380, -931, -129, 25830, -24500, 2100
430431, -406, -989, -141, -2800, -8260, 8050
430451, -422, -1014, -152, -22470, 560, 17220
430471, -431, -1011, -158, -26530, 490, 22610
430491, -424, -1000, -159, -15120, -5600, 13720
430511, -401, -960, -146, 12950, -20650, -4550
430531, -358, -896, -125, 36960, -33320, -18690
430551, -333, -841, -117, 29470, -27930, -18340
430571, -328, -816, -127, -6300, -6650, -2240
430591, -340, -814, -137, -35910, 9870, 17360
430611, -343, -810, -140, -35000, 9100, 27580
430631, -344, -821, -137, -6230, -5880, 23870
430651, -356, -855, -133, 26460, -20370, 11200
430671, -379, -917, -135, 44240, -25690, 210
430691, -404, -983, -141, 41440, -19530, -7490
430711, -418, -1032, -144, 25130, -5390, -11200
430731, -422, -1047, -152, 3150, 11760, -9590
430751, -425, -1039, -162, -18550, 26950, -770
430771, -423, -1004, -160, -21140, 26950, 16450
430791, -406, -960, -149, 5670, 7490, 29120
430811, -381, -909, -133, 35700, -8470, 21490
430831, -360, -882, -125, 43400, -5110, -2450
430851, -354, -881, -131, 22540, 17080, -23310
430871, -359, -888, -138, -7280, 40530, -24990
430891, -370, -901, -144, -17920, 45500, -6020
430911, -387, -928, -145, -6580, 35280, 16940
430931, -403, -965, -147, 15120, 21840, 27090
430951, -420, -1012, -146, 34720, 13090, 22120
430971, -431, -1036, -142, 39970, 14980, 9590
430991, -421, -1022, -145, 28490, 26180, -2100
431011, -395, -969, -145, 1960, 46900, -13580
431031, -369, -910, -142, -21630, 65800, -9730
431051, -361, -878, -138, 2030, 44800, 14840
431071, -361, -863, -133, 27790, 23240, 34090
431091, -369, -866, -129, 36540, 18900, 32270
431111, -379, -895, -129, 23730, 34650, 8960
431131, -386, -926, -136, 4340, 55160, -18690
431151, -386, -947, -140, -4760, 64260, -31640
431171, -388, -963, -142, -2100, 59990, -23100
431191, -395, -968, -142, 8680, 46130, 1680
431211, -398, -952, -140, 19250, 32130, 24220
431231, -394, -931, -135, 22960, 26600, 28700
431251, -391, -921, -131, 19600, 29470, 15540
431271, -391, -926, -134, 6440, 40810, -8400
431291, -384, -929, -139, -6930, 51520, -30590
431311, -373, -922, -133, -7420, 50470, -36540
431331, -366, -910, -131, 280, 39130, -21070
431351, -370, -900, -129, 9240, 21770, 9100
431371, -382, -902, -132, 12250, 9240, 32410
431391, -393, -918, -132, 6930, 9310, 29330
431411, -397, -934, -134, -490, 15890, 5460
431431, -396, -951, -135, -8260, 22610, -21630
431451, -390, -955, -138, -12740, 23520, -35280
431471, -381, -940, -136, -7490, 13650, -29330
431491, -374, -922, -132, 1610, -1680, -9590
431511, -383, -923, -130, 4970, -14070, 12670
431531, -401, -944, -134, -630, -19040, 26740
431551, -415, -968, -142, -13300, -14910, 21280
431571, -417, -978, -143, -22750, -8330, -2590
431591, -398, -969, -140, -20440, -8400, -30100
431611, -378, -948, -135, -11900, -15540, -43610
431631, -368, -919, -130, -3990, -27930, -31920
431651, -370, -901, -130, -3850, -39340, -2800
431671, -376, -892, -132, -14420, -41930, 22120
431691, -380, -885, -133, -25830, -38850, 27440
431711, -374, -880, -137, -32690, -32830, 10290
431731, -370, -887, -137, -31780, -28770, -17640
431751, -373, -910, -136, -20020, -34020, -36330
431771, -375, -934, -135, -5460, -45290, -37100
431791, -386, -957, -135, 2030, -55090, -22610
431811, -409, -986, -140, -2450, -58170, 0
431831, -426, -1001, -147, -18620, -51870, 17780
431851, -421, -983, -149, -32760, -44100, 21070
431871, -397, -945, -145, -34440, -40110, 5250
431891, -365, -895, -137, -26740, -38220, -21910
431911, -345, -859, -132, -14420, -41090, -39340
431931, -340, -854, -129, -4340, -50890, -13650
431951, -356, -876, -132, -7700, -52360, 11620
431971, -386, -922, -142, -16520, -46270, 24500
431991, -411, -971, -148, -21910, -38150, 20370
432011, -424, -1005, -153, -17640, -33950, 3570
432031, -420, -1011, -154, -7420, -32760, -17080
432051, -396, -975, -143, 2450, -33390, -28770
432071, -374, -933, -138, 1960, -30310, -25130
432091, -362, -901, -135, -6930, -24570, -7770
432111, -363, -890, -138, -13930, -21000, 13790
432131, -376, -896, -143, -16310, -17710, 25760
432151, -385, -912, -146, -11270, -15260, 21560
432171, -390, -925, -146, -140, -13370, 3010
432191, -380, -928, -142, 10850, -10010, -18060
432211, -372, -933, -138, 17850, -7770, -24220
432231, -376, -939, -136, 15400, -4830, -10010
432251, -384, -941, -141, 3360, 2170, 12740
432271, -390, -933, -147, -7910, 11410, 26460
432291, -388, -919, -147, -8400, 17360, 23660
432311, -380, -907, -144, 2310, 18200, 9450
432331, -377, -913, -140, 16450, 16730, -5320
432351, -380, -931, -138, 25130, 16730, -12460
432371, -387, -954, -141, 23380, 21350, -10430
432391, -397, -973, -142, 16100, 27790, -980
432411, -405, -980, -144, 9310, 32690, 12600
432431, -409, -973, -147, 3850, 36820, 22470
432451, -401, -951, -147, 4340, 38920, 21630
432471, -384, -922, -141, 12670, 38500, 8820
432491, -363, -894, -133, 21910, 38500, -7700
432511, -358, -887, -130, 25830, 39340, -14420
432531, -368, -906, -133, 20160, 42350, -5460
432551, -391, -938, -140, 9450, 45920, 13160
432571, -408, -967, -146, 5110, 45220, 28840
432591, -415, -979, -147, 9240, 42280, 29400
432611, -405, -965, -140, 17500, 39830, 14700
432631, -385, -930, -136, 23520, 39410, -4410
432651, -362, -886, -129, 21210, 42560, -17010
432671, -348, -857, -127, 13230, 46130, -16450
432691, -347, -847, -129, 4200, 48090, -5110
432711, -357, -855, -132, -1540, 47110, 9590
432731, -371, -878, -136, 840, 41370, 20020
432751, -388, -915, -137, 10010, 33670, 19390
432771, -398, -952, -135, 20580, 27860, 6580
432791, -405, -983, -135, 27160, 24920, -9450
432811, -408, -1006, -138, 22610, 27090, -18830
432831, -417, -1015, -145, -4690, 33740, -2380
432851, -417, -995, -146, -8470, 29050, 9590
432871, -403, -957, -142, -3080, 20370, 11130
432891, -387, -913, -134, 4970, 12740, 1610
432911, -367, -880, -129, 7560, 10430, -12740
432931, -354, -858, -124, 5110, 10150, -21700
432951, -353, -862, -125, -700, 9590, -19390
432971, -369, -898, -131, -7420, 7770, -9030
432991, -395, -946, -138, -7910, 1330, 2590
433011, -413, -991, -142, -1470, -7910, 7560
433031, -425, -1014, -142, 5320, -15540, 4270
433051, -420, -1004, -139, 5460, -18480, -3080
433071, -399, -966, -137, -5040, -14140, -11900
433091, -379, -919, -134, -17990, -8470, -17360
433111, -366, -884, -132, -23870, -8680, -15540
433131, -357, -867, -131, -22260, -14700, -8120
433151, -359, -865, -133, -14630, -24990, 1260
433171, -372, -885, -133, -5810, -34580, 6370
433191, -382, -910, -137, -1190, -38710, 2100
433211, -386, -932, -135, -1400, -37800, -9030
433231, -388, -950, -136, -7910, -32760, -18270
433251, -395, -966, -139, -18480, -27510, -17220
433271, -407, -980, -146, -24570, -28000, -5530
433291, -408, -976, -146, -20720, -34860, 5810
433311, -401, -961, -141, -10710, -42700, 7000
433331, -390, -945, -139, -4760, -45010, -1540
433351, -387, -940, -139, -8190, -40950, -10150
433371, -389, -946, -142, -16660, -35070, -12530
433391, -396, -958, -143, -21700, -32340, -9100
433411, -391, -951, -143, -20020, -33600, -4060
433431, -384, -933, -140, -14700, -36610, 1050
433451, -378, -913, -139, -10500, -38430, 5600
433471, -372, -893, -136, -8330, -38220, 6930
433491, -364, -877, -134, -8610, -34790, 2450
433511, -355, -866, -134, -12460, -27440, -5810
433531, -360, -879, -136, -17850, -19390, -10920
433551, -374, -910, -140, -19040, -16100, -7630
433571, -389, -944, -145, -10010, -21490, 2870
433591, -399, -960, -142, 4620, -29960, 11270
433611, -394, -952, -140, 11900, -30660, 9310
433631, -380, -927, -138, 4550, -19460, -1400
433651, -370, -908, -141, -8960, -4550, -10150
433671, -369, -901, -140, -15890, 3080, -8750
433691, -375, -907, -143, -11550, 1330, -140
433711, -386, -929, -142, -1960, -5530, 9030
433731, -397, -957, -141, 14630, -6160, 6790
433751, -403, -979, -141, 15330, -2450, 3010
433771, -408, -991, -143, 6650, 7140, -280
433791, -407, -989, -145, -6090, 18760, -1680
433811, -398, -962, -147, -12600, 25690, -770
433831, -375, -910, -140, -5600, 22890, 2660
433851, -360, -874, -135, 7000, 16380, 6300
433871, -356, -860, -130, 14350, 14070, 7070
433891, -359, -870, -131, 14420, 17220, 4830
433911, -370, -899, -134, 10290, 23170, 1750
433931, -384, -934, -138, 5880, 28700, 630
433951, -397, -960, -143, 3010, 32130, 2660
433971, -406, -973, -147, 3780, 32410, 5250
433991, -406, -974, -146, 11270, 28490, 5110
434011, -397, -961, -138, 21840, 22750, 2660
434031, -388, -942, -134, 23170, 22610, -140
434051, -383, -931, -136, 10570, 30940, -770
434071, -384, -921, -139, -5040, 40460, 1190
434091, -378, -908, -139, -9380, 42210, 2870
434111, -369, -890, -135, 630, 34860, 1890
434131, -368, -888, -132, 14140, 26040, -910
434151, -374, -905, -131, 21140, 20860, -1470
434171, -389, -935, -135, 20090, 19320, 980
434191, -398, -961, -139, 13230, 21630, 1750
434211, -405, -976, -139, 4270, 26530, -1050
434231, -403, -972, -142, -3850, 30520, -3850
434251, -393, -943, -139, -6160, 29470, -3990
434271, -376, -904, -134, 1190, 21350, -1960
434291, -360, -871, -128, 10220, 12530, -1540
434311, -356, -862, -126, 11340, 9730, -3360
434331, -360, -872, -128, 4340, 12250, -5320
434351, -374, -900, -135, -4340, 15610, -6160
434371, -390, -940, -140, -7140, 14700, -5250
434391, -408, -981, -141, -2030, 8120, -3080
434411, -419, -1007, -145, 5460, -210, -1960
434431, -421, -1013, -140, 11060, -7000, -2660
434451, -414, -1001, -139, 11550, -10360, -4550
434471, -400, -969, -136, 3780, -8260, -7000
434491, -387, -943, -138, -9870, -2800, -7630
434511, -385, -928, -138, -21770, 1400, -5530
434531, -380, -919, -138, -21910, -2800, -840
434551, -375, -902, -133, -10150, -14560, 2100
434571, -370, -893, -130, 1960, -24710, -140
434591, -368, -893, -129, 3780, -26530, -5040
434611, -376, -910, -133, -14140, -17920, -8960
434631, -385, -931, -138, -15470, -18900, -7630
434651, -391, -948, -140, -11760, -23030, -5250
434671, -398, -958, -140, -9450, -26530, -1960
434691, -397, -958, -141, -7980, -29190, 280
434711, -390, -938, -138, -5600, -31220, 0
434731, -376, -905, -133, -7980, -29120, -4200
434751, -364, -881, -133, -16240, -22680, -9800
434771, -359, -874, -134, -23170, -16660, -13790
434791, -364, -887, -136, -20160, -18410, -10570
434811, -376, -911, -137, -8190, -28280, -420
434831, -391, -944, -139, 2240, -36820, 7770
434851, -406, -982, -141, 3150, -35630, 6230
434871, -416, -1003, -144, -2730, -28420, -560
434891, -411, -1000, -145, -10780, -21490, -4830
434911, -399, -970, -143, -17710, -16660, -4550
434931, -386, -937, -142, -21840, -13020, -2310
434951, -372, -898, -140, -20020, -12810, -770
434971, -363, -877, -136, -9590, -18270, 280
434991, -362, -879, -133, 2030, -23940, 1400
435011, -377, -914, -137, 4760, -23730, 3500
435031, -399, -961, -144, -2660, -17010, 5110
435051, -409, -989, -148, -11200, -8470, 3150
435071, -407, -986, -147, -10850, -5040, -630
435091, -395, -963, -142, -3990, -6510, -2030
435111, -382, -929, -138, 560, -7910, 700
435131, -366, -889, -135, 770, -6580, 4620
435151, -353, -860, -133, -1680, -1960, 5180
435171, -348, -847, -132, -3850, 3080, 3780
435191, -358, -868, -137, -5040, 7070, 2870
435211, -375, -911, -141, -3780, 9170, 3710
435231, -394, -953, -142, 4480, 5810, 7560
435251, -406, -981, -144, 14560, 1190, 11410
435271, -403, -976, -143, 17850, 1400, 10990
435291, -388, -945, -138, 12110, 8820, 5670
435311, -377, -915, -137, 490, 20440, -420
435331, -374, -905, -138, -6790, 26810, 420
435351, -379, -912, -141, -5460, 25550, 6090
435371, -393, -949, -143, 1680, 21840, 7980
435391, -420, -1010, -144, 13160, 16380, 6580
435411, -448, -1091, -149, 23240, 10710, 5810
435431, -466, -1131, -155, 22260, 11060, 6370
435451, -464, -1113, -158, 9100, 18690, 7700
435471, -429, -1029, -153, -9660, 30590, 5390
435491, -394, -946, -147, -17640, 35980, -2310
435511, -359, -873, -134, 7490, 21490, -17080
435531, -348, -855, -127, 18130, 14000, -14280
435551, -357, -880, -129, 17920, 11760, -4690
435571, -389, -944, -138, 9520, 14910, 5530
435591, -420, -1007, -147, 1610, 19670, 8610
435611, -435, -1042, -151, -1260, 23030, 2380
435631, -422, -1012, -147, 980, 23520, -6790
435651, -389, -938, -139, 5950, 21280, -14070
435671, -355, -862, -132, 9030, 19880, -17220
435691, -321, -791, -122, 10430, 19250, -16660
435711, -282, -804, -128, 6790, 22260, -11760
435731, -96, -873, -382, -53900, 109410, -8120
435751, -444, -1153, -583, -290640, 575120, 5880
435771, -275, -741, -503, -161070, 836360, 91070
435791, -364, -433, -494, 307020, 746550, 293370
435811, -446, -126, -366, 586530, 788830, 525140
435831, -670, -218, -257, 715050, 862820, 668570
435851, -867, -622, -395, 671860, 885850, 685510
435871, -1075, -1029, -456, 557690, 947030, 524440
435891, -940, -956, -430, 521780, 997080, 237510
435911, -636, -765, -296, 703500, 844340, -17640
435931, -760, -716, 196, 834470, 688660, -100940
435951, -423, -1016, -135, 330050, 391860, -66010
435971, -398, -950, -159, -320950, 88480, -82320
435991, -406, -949, -204, -396410, 72660, -63980
436011, -290, -929, -482, -279650, -61880, 10710
436031, -451, 573, -728, 16520, -100590, 22050
436051, -1948, -1137, 68, 264320, 155680, 33390
436071, -512, -652, -446, 13230, 327320, 356370
436091, -568, -672, -438, -46410, 133980, 33740
436111, -603, -687, -532, -34230, 104300, -151900
436131, -436, -627, -227, -54390, 108080, -140490
436151, -247, -774, -191, -68460, 134610, -117530
436171, -115, -829, -268, -24080, 64960, -79940
436191, 58, -1207, -683, 22400, -20720, -15750
436211, -329, -819, -479, 6370, -100520, 13230
436231, -298, -719, -766, -167580, 8820, -29400
436251, -68, -480, -1104, -273630, 99470, -23800
436271, -202, -636, -734, -225120, 56420, -15260
436291, -166, -494, -724, -126980, 105560, -25620
436311, -280, -495, -613, -115220, 107590, -39550
436331, -191, -389, -659, -109760, 21210, -17500
436351, 63, -333, -618, -106960, -39550, 14700
436371, -176, -432, -771, -136290, -98210, 85260
436391, -487, -248, -1104, -150780, -92120, 226660
436411, -388, -592, -780, 74130, -181650, 117810
436431, -658, -823, -1010, 37100, -258860, 130340
436451, -522, -766, -838, -61740, -179690, 115990
436471, -584, -477, -675, -87010, -136920, 42420
436491, -575, -632, -863, -38290, -197890, 40670
436511, -608, -714, -679, -23590, -210280, 41720
436531, -712, -575, -575, -20370, -190260, 7560
436551, -706, -644, -555, -28490, -182350, -33880
436571, -728, -605, -460, -32480, -188510, -62930
436591, -695, -528, -411, -51940, -186340, -88410
436611, -718, -387, -456, -53760, -195090, -94360
436631, -696, -515, -475, -96250, -162890, -74830
436651, -673, -496, -581, -114030, -133420, -59360
436671, -649, -480, -404, -101920, -95900, -64330
436691, -675, -430, -216, -76300, -64610, -75250
436711, -688, -331, -97, -68390, -79380, -68670
436731, -666, -282, -381, -72730, -121170, -47180
436751, -727, -426, -140, -43120, -138110, -3500
436771, -694, -288, -110, 2730, -116200, 13230
436791, -765, -266, -90, 630, -112280, 9870
436811, -800, -263, -58, -2590, -108710, 17220
436831, -711, 22, 66, -3430, -110880, 21630
436851, -1210, -428, 382, 40320, -150850, 66430
436871, -964, -302, 6, 21700, -156450, 65030
436891, -980, -193, 107, 45290, -92190, 15330
436911, -1103, -321, 473, 116130, -63770, 26600
436931, -1192, -458, 243, 49140, 22890, 10990
436951, -995, -458, 54, -34300, 5040, 18340
436971, -992, -336, 161, -49000, -14630, 23800
436991, -974, -297, -39, -15750, -36330, 91420
437011, -1105, -31, -162, -21070, -100590, 193830
437031, -970, -247, 34, -10850, -104580, 211330
437051, -1016, -78, 251, 39690, -67760, 119700
437071, -1014, -86, 384, 80640, -106680, 77000
437091, -960, -105, 357, 86870, -206570, 104440
437111, -817, -39, 531, 65310, -324030, 120750
437131, -378, 152, 655, 76020, -393260, 170380
437151, -811, 202, 750, 124250, -398370, 203630
437171, -790, 90, 699, 89530, -226730, 158130
437191, -580, 278, 604, -12110, -18900, 58030
437211, -698, 211, 688, 3990, -18410, 45360
437231, -626, 285, 773, -2030, -15120, 40600
437251, -669, 201, 770, -12670, -48090, 29190
437271, -752, 162, 775, -36260, -77420, 34440
437291, -593, 222, 753, -61600, -82670, 69020
437311, -562, 171, 826, -33320, -13720, 76580
437331, -556, 245, 800, -18060, -38850, 52150
437351, -591, 234, 691, -36610, -59500, 49980
437371, -561, 227, 784, -77070, -55300, 36120
437391, -505, 174, 768, -99120, -49840, 29680
437411, -361, 187, 802, -96110, -25550, 52220
437431, -611, 224, 880, -88550, 40320, 96180
437451, -667, 150, 831, -116270, 65520, 84280
437471, -613, -30, 973, -125370, -23380, 54740
437491, -460, 87, 933, -109620, -130200, 34090
437511, -528, 118, 895, -118300, -186550, 1120
437531, -479, 152, 949, -111020, -187320, 4270
437551, -332, -9, 981, -81900, -166600, 48160
437571, -128, -33, 841, -62510, -183610, 77420
437591, -131, -77, 948, -54390, -162260, 81620
437611, -16, -44, 896, -77700, -145250, 49490
437631, -76, -34, 922, -100800, -126350, 10150
437651, -22, 0, 926, -85050, -75110, 7000
437671, -42, -98, 961, -53200, -48650, 20440
437691, -38, -140, 1075, -45500, -50050, 25690
437711, -20, -137, 1058, -55930, -47740, 16170
437731, -29, -161, 1038, -56840, -39690, 7700
437751, 47, -190, 964, -32690, -26880, 12250
437771, 6, -189, 1029, -10570, -8610, 13090
437791, -5, -143, 980, -8540, 1120, 13300
437811, -50, -137, 932, -28560, -14420, 5180
437831, -442, -402, 775, -38710, -38990, 3220
437851, -101, -277, 1136, -81900, 48020, -20090
437871, -32, -240, 1241, -1330, 5670, -15400
437891, 87, -188, 1087, 42980, -15610, 7630
437911, -62, -110, 1045, 29190, -37450, 17920
437931, -43, -146, 971, -9380, -23520, 8890
437951, 0, -216, 1035, -18690, -25550, -1680
437971, 196, 30, 571, 4270, -15190, 1470
437991, 55, -260, 794, 6300, 7280, 7490
438011, -62, -315, 1229, -17430, 36890, -3290
438031, -11, -250, 1156, 5670, 25480, -10360
438051, 104, -81, 898, 23660, -6440, 140
438071, -31, -147, 1045, 11410, -14840, 6510
438091, 1, -172, 995, 560, -2450, 4340
438111, 30, -169, 972, 7070, -7700, 2310
438131, 35, -179, 980, 8260, -9940, 1470
438151, 2, -163, 986, 8540, -2450, 3290
438171, 6, -166, 989, 3430, 4130, -1400
438191, -8, -189, 1021, 3360, 7490, -3710
438211, 12, -190, 1019, 1680, 3990, -3780
438231, 15, -169, 1027, -1890, 2170, -3220
438251, 20, -173, 1021, -4620, -1470, -2590
438271, 29, -170, 1005, -7560, -5740, -4410
438291, 12, -178, 1018, -9240, -5600, -3220
438311, 16, -173, 994, -8400, -3710, -280
438331, 9, -166, 1046, -5110, 700, 2100
438351, -32, -146, 1083, 1260, 2380, 6160
438371, 23, -189, 976, 3710, -4200, 11340
438391, 381, -253, 534, -6720, -30730, 1890
438411, -22, -323, 1184, -52990, -64050, -35140
438431, 172, -208, 941, -9240, -31290, -17990
438451, 52, -100, 916, 9380, -9310, 3850
438471, 78, -198, 1005, 4340, 3780, 6300
438491, 59, -148, 977, 3920, -210, 2380
438511, 22, -141, 1029, 5460, -630, 3080
438531, 41, -151, 1078, 5320, 3710, 840
438551, 21, -145, 981, 12390, 10360, 7770
438571, 133, -209, 810, 9730, -6930, 9520
438591, 154, -311, 1295, -13090, -58100, -12810
438611, 115, -193, 1164, 23520, -11270, -5250
438631, 99, -67, 1002, 15470, 13020, 6930
438651, 44, -141, 1000, -5320, 1960, 4970
438671, 85, -181, 931, -6440, -6090, 6230
438691, 59, -155, 962, 3920, -3500, 6860
438711, 100, -166, 995, 2170, -3430, 2940
438731, 94, -162, 1005, -140, 2520, -980
438751, 67, -161, 999, -910, 7560, -700
438771, 57, -177, 1010, -2240, 6020, 770
438791, 59, -179, 1009, -2380, 2240, -630
438811, 94, -197, 978, -3220, 70, -3570
438831, 63, -167, 1018, -3570, 6020, -2240
438851, 60, -147, 1000, -1330, 13160, 1960
438871, 53, -166, 1058, -2520, 10640, 3780
438891, 1, -155, 1105, -3010, 4690, 1890
438911, -4, -162, 1021, -2380, 2660, 2590
438931, 79, -147, 826, -1120, -1960, 8750
438951, -333, -316, 1309, -3640, -16800, 8610
438971, 295, -287, 936, -20860, -28350, -10360
438991, 148, -180, 1045, 6860, -27510, -4550
439011, 129, -164, 1027, 14280, -3150, 3220
439031, 101, -172, 994, 3220, 7560, -1750
439051, 50, -138, 977, -1470, 16520, 140
439071, 46, -132, 963, 5950, 19040, 7140
439091, 30, -128, 974, 8260, 20020, 5040
439111, 37, -141, 977, 7560, 17220, 2310
439131, 25, -170, 1039, 5880, 4970, 980
439151, 60, -174, 1000, 1890, -3990, -630
439171, 62, -161, 989, -770, -5180, -1610
439191, 75, -165, 998, -560, -4970, -1470
439211, 67, -176, 996, 1890, -1190, 630
439231, 55, -159, 977, 4480, 4550, 3150
439251, 63, -151, 981, 6860, 9590, 3150
439271, 45, -130, 1001, 8750, 12600, 1610
439291, 36, -126, 1024, 10360, 13300, 1190
439311, 6, -117, 1059, 4550, 8120, -1190
439331, 25, -124, 1017, -2170, -2240, -2170
439351, 45, -153, 1014, -4830, -10080, -2800
439371, 74, -170, 993, -2870, -8050, -2100
439391, 66, -159, 995, 140, -2660, 210
439411, 49, -133, 997, -1120, -1470, 1190
439431, 45, -142, 998, -3150, -5460, 1050
439451, 37, -151, 1034, -2520, -9380, 1610
439471, 42, -140, 1084, 1330, -4130, 2870
439491, 25, -90, 1057, 4410, 6370, 6370
439511, 1969, 489, -1530, 10570, -4760, 14210
439531, 19, -253, 940, -28000, 11550, 0
439551, 56, -239, 1137, -5950, 4830, -12250
439571, 30, -153, 1145, 35630, 14560, 700
439591, 56, -81, 1120, 28420, 9590, 12040
439611, 79, -80, 846, 19040, -8400, 16520
439631, -10, -131, 1053, -4200, -30170, 10010
439651, 47, -103, 974, -17850, -25830, -6090
439671, 84, -147, 996, -7700, -14210, -6370
439691, 71, -141, 1003, -1260, -910, -3710
439711, 66, -149, 984, -2170, 7070, -3360
439731, 54, -142, 986, -4480, 3640, -1960
439751, 60, -128, 1005, -3780, 210, -1120
439771, 71, -133, 1033, -2380, -70, -2310
439791, 78, -132, 1004, -2590, -840, -3920
439811, 64, -131, 996, -6720, -5390, -4550
439831, 80, -129, 959, -7630, -6090, -3290
439851, 63, -130, 995, -6230, -4060, -2590
439871, 73, -139, 1002, -2520, 910, -1820
439891, 60, -132, 1001, 840, 4900, -420
439911, 48, -109, 1001, 1960, 5950, 1750
439931, 46, -127, 1016, 700, 4690, 1330
439951, 51, -127, 1011, -1820, 2590, -280
439971, 43, -154, 1104, -1260, 2310, -1260
439991, -16, -59, 1035, 9030, 9590, 7840
440011, 43, -61, 907, 12390, -910, 14700
440031, 67, -147, 1016, -19880, -8330, -8610
440051, 157, -254, 1195, -4970, -13580, -17990
440071, 69, -175, 1149, 24290, 8120, -350
440091, 241, -171, 865, 15470, -15050, 10640
440111, 17, -91, 1023, -9380, -19110, 5180
440131, 25, -101, 1060, -7350, -9660, 280
440151, 2, -60, 967, 15540, 2520, 10990
440171, 38, 8, 559, 20440, 12320, 18410
440191, -45, -365, 1387, -20930, 24010, -3570
440211, 50, -163, 1232, 18550, 30870, -5670
440231, 123, -30, 1011, 23940, 1960, 7700
440251, 31, -56, 999, 3780, -30380, 9800
440271, 65, -127, 960, -14560, -18060, 560
440291, 90, -158, 993, -21770, -20440, -13370
440311, 109, -105, 988, -16520, -15330, -11270
440331, 108, -115, 998, -8680, -3080, -4130
440351, 84, -105, 1007, -7350, 2310, -3360
440371, 75, -119, 1007, -7700, -1190, -2380
440391, 63, -89, 1000, -7840, -5950, -1470
440411, 72, -103, 1029, -5110, -7280, -1540
440431, 95, -137, 1040, -2590, -5670, -2660
440451, 92, -129, 1000, 3220, -1190, 1260
440471, 93, -137, 993, 4480, 1120, 3360
440491, 85, -121, 1017, 560, -1820, 980
440511, 113, -153, 1012, 3010, -1960, -490
440531, 104, -129, 994, 10360, -2380, 1680
440551, 126, -100, 999, 12180, -7140, 3990
440571, 174, -147, 968, 4340, -19180, 1400
440591, 139, -145, 962, 3780, -24290, 2730
440611, 148, -100, 937, 12950, -31990, 11410
440631, 167, -50, 961, 17220, -34160, 15680
440651, 138, -49, 1022, 17430, -23030, 10080
440671, 115, -60, 1045, 26460, -30380, 13580
440691, 126, -53, 1067, 31290, -18970, 9520
440711, 172, -73, 1092, 36820, 4620, -840
440731, 152, -53, 1088, 36820, 13510, -4410
440751, 136, -44, 1111, 26460, 15050, -2450
440771, 122, -108, 1045, 7140, 11480, -3850
440791, 174, -13, 941, -7000, 18970, -1750
440811, 71, -25, 970, -10780, 20440, 9660
440831, 74, 7, 967, -23170, 4340, 14770
440851, 62, 19, 985, -26180, -5250, 11760
440871, 84, -19, 985, -14070, 1260, 7490
440891, 102, -33, 986, -1330, 2170, -1540
440911, 160, -69, 976, -3990, -3640, -980
440931, 139, -52, 1022, -13090, -13510, -1400
440951, 121, -44, 1040, -14630, -13020, -2240
440971, 152, -46, 1012, -3290, -4760, -560
440991, 151, -67, 1039, -490, -770, -1120
441011, 141, -62, 1048, -6650, -4690, -3150
441031, 147, -120, 1021, -5600, -980, 700
441051, 150, -122, 979, -2310, 5110, 6090
441071, -698, -785, 679, -34440, 9170, -1680
441091, -7, -173, 1174, -103250, -46830, -50610
441111, 168, -202, 1183, -10290, -41160, -22890
441131, 287, 59, 839, 70630, 29330, 24920
441151, 155, -48, 1097, 87010, 35280, 36750
441171, 129, -101, 1234, 9870, -8750, 2520
441191, 117, -57, 1068, -5180, -12180, -2380
441211, 146, -87, 1043, 5180, 7070, 1260
441231, 115, -79, 1041, 2940, 10080, -1750
441251, 138, -84, 1002, 420, 10500, -2660
441271, 142, -69, 970, -2940, 9870, -2940
441291, 119, -56, 964, -8680, 6300, -1750
441311, 108, -37, 949, -7350, 3150, 1400
441331, 105, -45, 972, -770, 2100, 3430
441351, 101, -45, 1000, 2800, 1120, 1330
441371, 123, -58, 974, 6160, 1750, 280
441391, 132, -48, 992, 4270, 1680, -1610
441411, 120, -53, 1018, -2660, -3430, -5040
441431, 126, -57, 1009, -4760, -4410, -6930
441451, 129, -65, 1024, 1260, 420, -5740
441471, 136, -64, 1018, 3570, 3150, -5460
441491, 123, -45, 1042, 3220, 3710, -4060
441511, 138, -63, 1042, -1610, 1260, -5040
441531, 148, -64, 1038, -2940, 1470, -5670
441551, 143, -71, 1028, -1960, 3570, -4270
441571, 138, -96, 1013, -2940, 2590, -2520
441591, -392, -330, 966, -3220, 3850, -1050
441611, 32, -123, 1120, -29260, 18130, -10010
441631, 135, -134, 1141, -43330, -23730, -20440
441651, 190, 61, 853, 5110, -21490, 350
441671, 138, -22, 1054, 40250, 14000, 16800
441691, 130, -77, 1135, 14630, 6720, 7140
441711, 145, -68, 1055, -1190, -6440, -1750
441731, 135, -92, 1050, 980, 1470, 2800
441751, 117, -99, 1007, -1820, 4760, 5040
441771, 227, -187, 586, -7140, 3850, 5040
441791, 18, -206, 1192, -52850, -32480, -36260
441811, 163, -80, 1073, 14350, -21560, -5320
441831, 246, 65, 890, 60620, 20160, 23030
441851, 142, -39, 1115, 33110, 11060, 16240
441871, 112, -65, 1136, -7980, -9590, -1050
441891, 122, -56, 1006, 0, 3570, 1400
441911, 123, -78, 1009, 6370, 11480, 2100
441931, 115, -78, 997, 3290, 8610, 280
441951, 107, -68, 989, 490, 5530, 2240
441971, 101, -55, 985, -2240, 3150, 3780
441991, 114, -48, 982, -2030, 3080, 2800
442011, 108, -49, 1007, -70, 2800, 1050
442031, 109, -52, 989, -280, 2660, -140
442051, 114, -63, 978, -980, 2310, -630
442071, 121, -57, 966, -630, 1470, -840
442091, 121, -61, 987, -2030, -1260, -2030
442111, 120, -51, 997, -630, -1190, -2170
442131, 115, -54, 1028, 70, -910, -1960
442151, 117, -56, 993, -1190, -490, -2520
442171, 108, -61, 996, -1890, 350, -2870
442191, 111, -56, 992, -2800, -280, -3780
442211, 113, -68, 1021, -560, 910, -2730
442231, 119, -45, 1024, 630, 2240, -2590
442251, 121, -56, 1038, 3850, 5600, -2800
442271, 128, -61, 1029, 4760, 7980, -4620
442291, 125, -51, 1024, 2030, 9030, -6440
442311, 112, -53, 1022, -980, 7980, -5320
442331, 90, -31, 1002, -980, 8190, -1470
442351, 94, -62, 1030, 3780, 9870, 2940
442371, 80, -45, 1009, 3710, 8190, 2730
442391, 66, -33, 1034, -420, 6090, 1190
442411, 69, -40, 1067, -4830, 3080, -1610
442431, 97, -64, 1039, -7420, 2800, -4550
442451, 89, -64, 1002, -7840, 5250, -4200
442471, 765, -14, 832, -8330, 5460, -560
442491, 65, -158, 1114, -79380, -4480, -37240
442511, 147, -72, 1013, -24780, -45920, -21350
442531, 183, 12, 873, 30660, -4410, 7420
442551, 118, -56, 1108, 52290, 26810, 19880
442571, 87, -46, 1119, 11900, 980, 4200
442591, 90, -54, 1046, -4970, -10290, -910
442611, 91, -64, 1051, -1400, 630, 1050
442631, 88, -86, 1015, 2030, 5180, 350
442651, 92, -78, 951, 630, 5180, -140
442671, 84, -63, 960, -2100, 4550, 1190
442691, 82, -40, 970, -8400, -2380, 210
442711, 93, -28, 977, -2450, 980, -490
442731, 94, -42, 1021, -140, -140, -2520
442751, 87, -44, 1043, -2240, -2310, -3640
442771, 94, -45, 1045, -3360, -1470, -3570
442791, 93, -68, 1034, -770, 1120, -2520
442811, 82, -61, 1039, 0, 2800, -1610
442831, 82, -61, 1056, -1750, 3430, -2730
442851, 70, -51, 1065, -2870, 6020, -3710
442871, 78, -76, 1033, -3780, 8470, -3850
