T [ms],AccX [mg],AccY [mg],AccZ [mg],GyroX [mdps],GyroY [mdps],GyroZ [mdps]
1052246, -179, -12, 1028, -770, -6440, 20300
1052266, -127, 33, 999, 15400, 8120, 22470
1052286, -70, 34, 940, 9450, -8960, 17710
1052306, -161, 13, 1120, 3360, -13090, 12600
1052326, -76, 84, 953, -17010, -3500, 6300
1052346, -52, 34, 935, -16730, -20090, 4830
1052366, -43, 47, 951, -15330, -25340, 4550
1052386, -34, 46, 996, -10710, -33740, 9170
1052406, -88, -16, 1161, -6720, -35770, 13790
1052426, -56, -3, 865, 5320, 14420, 12110
1052446, -13, 15, 907, 70, 13860, 6160
1052466, -7, 31, 896, 4690, 17780, 6160
1052486, -96, 36, 984, 9520, -3430, 8260
1052506, -68, 17, 1007, 4830, -30450, 2100
1052526, -23, 49, 932, -14980, -45010, -14280
1052546, 74, 57, 844, -30380, -42560, -27580
1052566, 86, 37, 763, -30380, -36400, -26740
1052586, 39, 15, 794, -23100, -33250, -16800
1052606, 1, 47, 896, -27440, -44240, -9940
1052626, 67, 19, 924, -41790, -65100, -6230
1052646, 120, 1, 827, -34650, -72590, -490
1052666, 138, -23, 738, -5390, -60900, 5040
1052686, 55, 16, 711, 18970, -37800, 9100
1052706, 83, -13, 797, 29260, -33880, 10920
1052726, 44, 31, 1027, 39690, -56910, 16730
1052746, 68, 83, 1054, 77280, -44030, 24430
1052766, 81, 120, 1027, 94850, -12390, 20160
1052786, 101, 95, 917, 35840, 350, 6790
1052806, 125, 62, 883, -35000, -140, -1330
1052826, 106, 27, 920, -54250, -11060, 2940
1052846, 135, 32, 1024, -33250, -10500, 8120
1052866, 135, 73, 1004, 1260, 9800, 9520
1052886, 78, 63, 915, 39970, 28210, 6510
1052906, 20, 146, 918, 87220, 28280, 280
1052926, 39, 144, 989, 113750, 25340, -5530
1052946, 113, 189, 1071, 86590, 27930, -8260
1052966, 75, 176, 1049, 40180, 29400, -8330
1052986, -19, 218, 1007, -15890, 17150, -11270
1053006, 4, 189, 1033, -45220, 9170, -1820
1053026, 52, 129, 1037, -55720, 13230, 6860
1053046, 6, 130, 1023, -36470, 21210, 1260
1053066, 7, 129, 1074, -28420, 26740, -2100
1053086, 16, 115, 1123, -39200, 28630, -770
1053106, 50, 90, 1135, -44520, 18340, 1050
1053126, 54, 51, 1110, -32760, 11130, -280
1053146, 61, 76, 1066, -7980, 10850, -7770
1053166, 17, 63, 1063, 2800, 16170, -12110
1053186, 11, 87, 1047, 9730, 17360, -10010
1053206, 0, 112, 1074, 20300, 14840, -7350
1053226, -10, 102, 1084, 28350, 16520, -5110
1053246, 62, 112, 1092, 38500, 16590, -7560
1053266, -1, 131, 1047, 26250, 14910, -10710
1053286, -36, 117, 1041, -2450, 18620, -10710
1053306, -70, 103, 1076, -40040, 33600, -6230
1053326, -93, 65, 1132, -72450, 39830, 700
1053346, -61, -7, 1204, -94920, 41650, 11830
1053366, -57, -48, 1211, -86590, 40320, 17430
1053386, -70, -55, 1210, -59150, 35910, 13370
1053406, -55, -32, 1244, -31430, 27160, 9380
1053426, -53, -15, 1258, -9170, 22400, 6510
1053446, -64, 8, 1247, 2730, 15540, 3640
1053466, -70, 17, 1226, 14700, 8260, 1050
1053486, -67, 46, 1234, 25690, 4200, -210
1053506, -46, 46, 1246, 28980, 3290, -630
1053526, -42, 50, 1234, 22680, 4970, -910
1053546, -50, 58, 1229, 21840, 7280, -420
1053566, -40, 58, 1228, 23030, 10290, 630
1053586, -41, 69, 1219, 19950, 9730, 1890
1053606, -73, 82, 1173, 16170, 7420, 3080
1053626, -88, 76, 1137, 10780, 6020, 4480
1053646, -71, 58, 1104, -1260, 2870, 7980
1053666, -93, 59, 1116, -9170, 4130, 9940
1053686, -123, 76, 1069, -6160, 4760, 7910
1053706, -155, 74, 1043, 910, 1960, 4830
1053726, -143, 91, 1034, 4340, -350, 4690
1053746, -158, 73, 1020, 8680, 770, 3710
1053766, -166, 73, 1033, 10360, 6230, 4550
1053786, -149, 93, 1065, 12110, 12740, 4620
1053806, -154, 52, 1052, 4200, 16030, 3500
1053826, -159, 68, 1009, -10990, 13650, 7000
1053846, -191, 62, 1024, -11130, 10500, 5880
1053866, -170, 45, 1017, -10290, 8960, 2870
1053886, -165, 41, 992, -21140, 7000, 8400
1053906, -181, 22, 996, -23100, 7000, 10150
1053926, -178, 29, 1013, -18340, 10430, 13650
1053946, -116, 16, 1082, -12320, 13860, 11200
1053966, -159, 40, 1069, -17990, 10850, 11970
1053986, -220, 24, 1074, -13300, 5320, 10220
1054006, -213, 15, 1014, 1050, 1610, 8470
1054026, -195, 23, 1020, 3920, -4060, 8330
1054046, -122, 19, 1014, 4200, -7840, 6370
1054066, -141, 20, 985, 7560, -9240, 3220
1054086, -190, 25, 948, 16940, 140, -980
1054106, -227, 18, 945, 15540, 15400, -4410
1054126, -156, 20, 952, 1330, 23660, -4340
1054146, -152, 11, 962, -5740, 19390, -1120
1054166, -159, 14, 971, 420, 15120, 770
1054186, -187, 5, 936, 5740, 17430, 980
1054206, -235, 47, 922, 4620, 20230, -2450
1054226, -205, 66, 975, 1610, 19880, -140
1054246, -199, 71, 1017, 13230, 22890, 2450
1054266, -232, 72, 1004, 25410, 29610, 5880
1054286, -244, 93, 980, 21700, 22470, 7280
1054306, -264, 99, 1003, 9940, 4620, 10640
1054326, -259, 113, 1007, 23940, 700, 17290
1054346, -230, 108, 999, 39130, 9660, 19320
1054366, -225, 119, 986, 29820, 14280, 17710
1054386, -233, 118, 973, 16310, 19390, 12670
1054406, -272, 110, 954, 3780, 22610, 9660
1054426, -223, 113, 925, -10570, 15680, 6160
1054446, -185, 98, 906, -9240, 16870, 3850
1054466, -208, 166, 860, -6860, 27440, -4480
1054486, -288, 113, 922, -16100, 21420, -7490
1054506, -263, 94, 914, -24500, -210, -2170
1054526, -170, 72, 895, -29540, -5740, -3080
1054546, -189, 75, 875, -25970, 6230, -5110
1054566, -257, 82, 838, -23520, 16520, -10010
1054586, -285, 77, 837, -22470, 1820, -4690
1054606, -239, 34, 878, -13720, -3780, 5390
1054626, -196, 23, 940, -4900, 10290, 8400
1054646, -262, 59, 950, 140, 19670, 4550
1054666, -360, 86, 916, -7910, 16520, -3570
1054686, -313, 50, 893, -22120, -910, -9520
1054706, -245, 16, 898, -29120, -8750, -9590
1054726, -230, 6, 923, -25410, 5390, -10780
1054746, -305, 25, 952, -26390, 6650, -13650
1054766, -344, 24, 926, -29260, -10220, -13790
1054786, -319, 0, 891, -32340, -28420, -12460
1054806, -252, -7, 902, -20160, -15890, -16520
1054826, -253, -18, 955, -13020, -21350, -12740
1054846, -282, -8, 943, -5180, -36960, -4900
1054866, -252, -35, 928, 3080, -36330, 3010
1054886, -214, -52, 925, 9240, -22890, 5460
1054906, -201, -34, 959, 9310, -20230, 5880
1054926, -215, -17, 964, 10010, -24990, 6510
1054946, -209, -11, 954, 9870, -23240, 5740
1054966, -180, -35, 954, 6860, -12180, 3500
1054986, -144, -23, 983, 4270, -1400, -630
1055006, -165, 1, 982, -2940, -3920, -3290
1055026, -188, 0, 965, -9380, -11200, -280
1055046, -169, 3, 963, -9380, -14560, 3430
1055066, -145, 1, 1001, -4340, -9310, 2940
1055086, -113, 0, 1073, 770, -7560, 4340
1055106, -174, 4, 1065, 1540, -13440, 4970
1055126, -159, 0, 1050, -280, -22330, 3430
1055146, -156, 0, 1031, -1750, -22470, -2240
1055166, -103, 12, 1021, -840, -21700, -5320
1055186, -92, 10, 1007, 3220, -15890, -9590
1055206, -105, 0, 1028, 5110, -20020, -7000
1055226, -130, -12, 1017, 6440, -25760, -1400
1055246, -114, 7, 1005, 4550, -25620, 980
1055266, -95, 32, 1000, 2940, -23240, 2310
1055286, -138, 38, 971, 3570, -19180, 1680
1055306, -147, 7, 937, 6930, -7070, -490
1055326, -142, -7, 995, 9100, 7490, -3640
1055346, -222, 34, 1039, 5460, 4620, -3780
1055366, -228, 63, 1076, -350, -7560, -4130
1055386, -146, 48, 1039, -5110, -11200, -7840
1055406, -119, 22, 911, -5530, 1610, -15120
1055426, -107, 0, 827, -4060, 16450, -21910
1055446, -101, 12, 887, -7000, 12530, -20790
1055466, -89, 24, 899, -8960, -980, -15610
1055486, -47, -12, 873, -7630, -9590, -10920
1055506, -52, -20, 869, -1400, -4970, -7350
1055526, -39, -38, 849, 910, -3710, -7000
1055546, -21, -48, 817, -7000, -7490, -9030
1055566, -8, -39, 844, -14210, -9170, -10150
1055586, -29, -27, 846, -18130, -10220, -13300
1055606, -33, -24, 796, -21070, -16800, -18060
1055626, -27, -13, 791, -24990, -21630, -18830
1055646, 8, -18, 799, -27300, -16590, -18620
1055666, 25, -43, 792, -23030, -12320, -14910
1055686, -21, -29, 824, -12390, -10990, -7070
1055706, -28, 0, 870, -2520, -13230, 1120
1055726, 5, -41, 858, 7140, -1050, 7980
1055746, -10, -72, 850, 14000, 9520, 10010
1055766, -37, -58, 876, 9030, 6300, 3710
1055786, -60, -44, 892, 2380, 3920, -4900
1055806, -116, -42, 940, 560, 4060, -9660
1055826, -131, -34, 978, -2030, 3780, -12110
1055846, -72, -40, 988, -5180, 6510, -13090
1055866, -38, -36, 943, -2380, 4200, -10430
1055886, -132, -30, 949, 3640, -5600, -5250
1055906, -192, -36, 1002, 7140, -15120, 350
1055926, -147, -6, 1064, -910, -16380, 980
1055946, -57, -1, 1047, -6160, -7840, -1050
1055966, -73, -38, 1014, -210, 700, -4340
1055986, -116, -33, 1026, 3640, -5530, -6160
1056006, -91, -31, 997, -490, -15050, -7420
1056026, -41, -4, 963, -4970, -14280, -10430
1056046, -24, -10, 939, -4480, -11900, -9800
1056066, -83, -34, 1049, 980, -11970, -1400
1056086, -57, -33, 1120, 6370, -15260, 7560
1056106, -13, -7, 1014, 5670, -14070, 6510
1056126, 12, -15, 963, 4270, -8890, 700
1056146, -58, -18, 1069, 9030, -5670, 3220
1056166, -64, -4, 1107, 13650, -12180, 7980
1056186, -35, 6, 1048, 12460, -11550, 6090
1056206, 40, 9, 947, 9380, -3290, 980
1056226, 40, 2, 961, 8120, -560, -2660
1056246, 18, 5, 1026, 15890, -8820, 700
1056266, 19, 0, 1029, 22470, -17500, 3220
1056286, 16, -7, 1037, 17220, -24080, 1330
1056306, 39, -9, 1002, 7210, -22330, -1470
1056326, 58, 9, 992, -3150, -9030, -9240
1056346, 71, 31, 999, -13650, -6510, -15890
1056366, 32, 2, 990, -17570, -11690, -17780
1056386, -49, 0, 983, -14700, -15190, -13510
1056406, -7, 2, 982, -13440, -14770, -11690
1056426, 62, 9, 977, -7840, -980, -9450
1056446, 89, -12, 982, 1610, 18130, -6510
1056466, 45, -30, 999, 7560, 17780, -3010
1056486, 31, 1, 994, 4970, -4900, -1190
1056506, 27, 12, 988, -3220, -25970, -1960
1056526, 80, 23, 1005, -1330, -22260, 1960
1056546, 95, -5, 1023, 6720, 560, 3710
1056566, 29, -19, 991, 12320, 12950, 3780
1056586, -24, 11, 999, 9870, 1260, 3290
1056606, -2, 31, 965, -4830, -8120, 350
1056626, 47, 22, 854, -1190, 18970, -3010
1056646, 67, 24, 875, 2660, 26180, -4690
1056666, -2, 26, 925, 6790, 12320, -3500
1056686, 9, 29, 967, 9310, 280, -1610
1056706, 11, 16, 1055, 10710, 2450, -980
1056726, 48, 20, 1107, 5950, 5880, -7700
1056746, -21, 31, 963, 3430, -2450, -21350
1056766, -64, 16, 739, 7280, -14980, -34860
1056786, -55, 24, 702, -4620, -18410, -33600
1056806, 10, 49, 869, -19880, -17570, -10710
1056826, 114, 36, 1070, -18480, -3710, 6370
1056846, 150, 8, 1082, -1260, 16590, 11130
1056866, 122, 2, 964, 17710, 25690, 5040
1056886, -1, 28, 864, 14910, 14210, -5600
1056906, -74, 56, 911, 490, 2730, -12250
1056926, 0, 33, 1031, -5740, 8400, -10640
1056946, 71, -6, 1034, 70, 20510, -5460
1056966, 37, 6, 1004, -1610, 14770, -6090
1056986, -22, 47, 1000, -17920, -8400, -12040
1057006, -65, 29, 970, -32480, -34790, -14980
1057026, -19, 2, 967, -26950, -30030, -14350
1057046, 63, -25, 1016, -14490, -13790, -10360
1057066, 86, -11, 1023, -23310, -24920, -4270
1057086, 35, 28, 1037, -42210, -48370, -630
1057106, 56, -22, 980, -48720, -70840, 6370
1057126, 158, -50, 1005, -29750, -72380, 13440
1057146, 138, -40, 1023, 7070, -23520, 13440
1057166, 123, -36, 1033, 17710, 16520, 5250
1057186, 38, -12, 1031, 13300, 17990, -840
1057206, 37, 23, 1067, 14840, -3080, -910
1057226, 126, -36, 1075, 17710, -18900, 1330
1057246, 178, -24, 1062, 22540, -1680, 2870
1057266, 126, -16, 1024, 22400, 20860, -1890
1057286, 82, 11, 959, 11970, 20440, -9170
1057306, 15, 1, 1008, 4550, 6160, -6370
1057326, 68, -3, 1032, 11760, 3290, 3220
1057346, 115, 26, 1031, 19530, 18130, 11900
1057366, 103, 10, 1000, 15050, 22820, 15330
1057386, 43, 23, 980, -210, 8120, 15750
1057406, 53, -9, 1015, -10150, -6930, 19950
1057426, 113, -22, 1033, -10640, -3780, 23590
1057446, 88, -3, 1091, -12250, 15120, 17990
1057466, 98, -11, 1105, -28210, 16730, 10430
1057486, 115, -8, 1116, -33460, 3640, 8890
1057506, 130, -10, 1060, 30870, 2940, 5110
1057526, 81, 21, 1034, 45990, 8260, -3570
1057546, 87, 32, 1045, 31710, 9310, -12600
1057566, 72, 41, 1078, 12810, 5320, -12670
1057586, 54, 37, 1097, 12950, 6160, -7700
1057606, 32, 33, 1062, 20930, 4900, -3080
1057626, 0, 48, 1023, 25340, 5740, -3430
1057646, 1, 59, 995, 20860, 10710, -4690
1057666, 30, 53, 1029, 17640, 15330, -3990
1057686, 39, 51, 1058, 6790, 15820, -1820
1057706, -6, 48, 1021, -16380, 12880, -3570
1057726, 1, 32, 1041, -42350, 9100, -5250
1057746, 66, 11, 1044, -49070, 8400, -2310
1057766, 98, -6, 1014, -28910, 9310, 1260
1057786, 55, 16, 975, -7840, 8260, 5040
1057806, 37, 20, 936, 1540, 4270, 4900
1057826, 30, 24, 925, -560, -2380, 4270
1057846, 40, 18, 994, -5460, -560, 1680
1057866, 25, 7, 1032, -15400, 5880, -3220
1057886, -8, 2, 1006, -25900, 6230, -5810
1057906, -28, -9, 1011, -34020, 4550, -4340
1057926, -11, -52, 1068, -42630, 5250, 140
1057946, -10, -78, 1107, -50120, 6790, 7000
1057966, -1, -51, 1123, -45640, 5040, 8190
1057986, -16, -99, 1133, -32970, 3010, 6230
1058006, 28, -96, 1158, -23800, 6930, 5950
1058026, -38, -90, 1138, -7070, 14070, 6580
1058046, -27, -80, 1109, 8120, 16030, 8680
1058066, 34, -77, 1088, 13930, 13230, 11130
1058086, 98, -73, 1068, 16730, 12040, 10990
1058106, 91, -62, 1027, 17850, 8890, 5390
1058126, 78, -48, 964, 15960, 9100, -1190
1058146, 17, -42, 942, 8260, 9450, -2240
1058166, -9, -30, 977, -8470, 9800, -1260
1058186, -7, -52, 989, -21490, 1260, 70
1058206, -54, -46, 1052, -17640, -10570, 13160
1058226, -88, -47, 1104, -15680, -18270, 23520
1058246, -79, -54, 1185, -13300, -20580, 28280
1058266, -24, -49, 1230, -10080, -15610, 25690
1058286, -18, -36, 1247, 1120, -4620, 18620
1058306, -11, -23, 1257, 8050, 7630, 7000
1058326, -7, -8, 1240, 11200, 17220, -560
1058346, 6, -20, 1209, 12880, 19880, -5180
1058366, 20, -29, 1180, 13090, 17780, -6370
1058386, 30, -39, 1154, 9800, 13720, -6930
1058406, 30, -53, 1178, 1960, 11900, -10150
1058426, 58, -83, 1197, -910, 13440, -7910
1058446, 53, -92, 1203, -4060, 7560, -6650
1058466, 34, -85, 1175, -6720, -2170, -11410
1058486, -5, -72, 1155, -3150, -4270, -14770
1058506, -51, -69, 1152, -2380, 3220, -13510
1058526, -85, -62, 1147, 1120, 13440, -8890
1058546, -107, -49, 1121, 11270, 21700, -7210
1058566, -121, -33, 1079, 11270, 20020, -3430
1058586, -102, -17, 1087, 8470, 13860, -3290
1058606, -49, -29, 1082, 9450, 13650, -7280
1058626, -42, -37, 1058, 12040, 12460, -10500
1058646, -63, -39, 1038, 14980, 8960, -12390
1058666, -87, -26, 1020, 10220, 4060, -13790
1058686, -76, -57, 994, -840, 1050, -11410
1058706, -96, -59, 991, -12320, 3150, -8890
1058726, -100, -66, 984, -9100, 5600, -4410
1058746, -134, -63, 998, -9100, -2590, -3430
1058766, -123, -93, 995, -10920, -8400, -3780
1058786, -137, -86, 1022, -7000, -3570, -4970
1058806, -124, -80, 1068, -7070, 1750, -5740
1058826, -92, -87, 1100, -12600, -560, -2100
1058846, -102, -88, 1067, -9450, -6160, 2520
1058866, -120, -56, 1005, 1820, -9170, 5600
1058886, -103, -25, 957, 5530, -8400, 3710
1058906, -108, -39, 900, 2170, -2800, 1820
1058926, -90, -41, 955, -3570, -2450, 4620
1058946, -82, -32, 981, -9450, -6020, 6160
1058966, -95, -23, 983, -19040, -8820, 3780
1058986, -49, -39, 954, -25900, -7700, -1050
1059006, -9, -66, 922, -25270, -420, -4550
1059026, -60, -70, 928, -21000, 5460, -3220
1059046, -86, -50, 939, -14280, 8050, 4410
1059066, -77, -60, 950, -8260, 12950, 7770
1059086, -65, -69, 929, -6090, 21420, 10920
1059106, -71, -62, 911, -700, 28210, 14070
1059126, -45, -39, 897, 4620, 29610, 14140
1059146, -107, -38, 868, 6650, 26740, 13720
1059166, -111, -39, 866, 10220, 18690, 17430
1059186, -69, -21, 897, 13230, 18760, 17290
1059206, -48, -38, 951, 7560, 21770, 11270
1059226, -63, -62, 972, 8750, 18480, 7770
1059246, -109, -36, 997, 14980, 15540, 3850
1059266, -184, -28, 1040, 16380, 18200, -1820
1059286, -177, -38, 1067, 18340, 26880, 2240
1059306, -112, -35, 1065, 28770, 64400, 10780
1059326, -161, -25, 1047, 24850, 63210, 5810
1059346, -238, -6, 1047, 17920, 31010, 8330
1059366, -261, 9, 1024, 11550, 16380, 4620
1059386, -199, 0, 1006, 10290, 25410, 910
1059406, -174, -11, 992, 9170, 31150, -140
1059426, -247, 7, 969, 1400, 16170, -630
1059446, -301, 17, 935, -6020, 560, -1120
1059466, -247, 3, 919, -7980, -1680, -2100
1059486, -203, 0, 926, -7840, 6300, -7910
1059506, -234, -21, 923, -7490, 1610, -8470
1059526, -281, -27, 909, -12180, -9590, -6370
1059546, -241, -3, 943, -22190, -8470, -11550
1059566, -193, -4, 976, -24780, 350, -15260
1059586, -232, -19, 1011, -19320, -280, -12810
1059606, -230, -28, 1019, -13510, -13160, -9310
1059626, -236, -33, 983, -9450, -20930, -7140
1059646, -264, -23, 970, -4900, -23450, -2590
1059666, -254, -35, 957, -2100, -26600, 2310
1059686, -252, -44, 966, 700, -23310, 4620
1059706, -218, -31, 964, 2730, -18690, 1960
1059726, -224, -20, 997, 4060, -16940, -140
1059746, -255, -19, 1001, 9940, -17220, 5320
1059766, -274, -12, 915, 17640, -10990, 9240
1059786, -259, -7, 882, 19250, 1400, 9170
1059806, -193, -8, 854, 16520, 11620, 13440
1059826, -175, -8, 849, 12250, 17080, 19950
1059846, -184, -15, 864, 3010, 3570, 20160
1059866, -216, -6, 942, -6510, -14420, 15470
1059886, -215, -3, 985, -9520, -25130, 13230
1059906, -157, -25, 974, -9590, -15330, 10220
1059926, -125, -30, 945, -9450, 3500, 4970
1059946, -129, -17, 974, -11690, 8330, -1820
1059966, -132, -1, 1000, -15960, -8120, -6650
1059986, -142, -15, 989, -13300, -19460, -7420
1060006, -161, -21, 1006, -3360, -14210, -3780
1060026, -149, -22, 1015, 2730, -9030, -1610
1060046, -149, -10, 992, 3220, -8960, -630
1060066, -179, 2, 989, 3220, -5180, -770
1060086, -175, 12, 1054, 4830, 2730, -910
1060106, -180, 9, 1013, 3920, 1470, -1680
1060126, -180, 12, 991, -280, -2520, -6930
1060146, -155, 3, 959, -140, -2450, -10500
1060166, -143, -2, 939, 5460, 5110, -12460
1060186, -153, -26, 894, 7280, 8050, -14770
1060206, -135, -28, 874, -3080, 6580, -21070
1060226, -112, -2, 926, -12180, 1540, -22750
1060246, -150, -1, 931, -15540, -12950, -20510
1060266, -219, -4, 973, -2030, -21560, -9030
1060286, -234, 2, 972, 9170, -19040, 2240
1060306, -216, -9, 946, 14980, -12320, 10990
1060326, -172, -17, 956, 18830, -9940, 15750
1060346, -160, -3, 944, 14490, -15190, 14700
1060366, -150, 3, 915, 6930, -21350, 12390
1060386, -79, 0, 901, 4130, -17290, 9240
1060406, -35, -13, 879, 700, -11480, 3500
1060426, -60, -2, 769, -5950, -11550, -3710
1060446, -70, 12, 738, -15330, -15820, -9310
1060466, -75, 12, 772, -23940, -24290, -12740
1060486, -55, 5, 838, -25690, -28000, -8890
1060506, 1, -19, 861, -15750, -16100, -1330
1060526, -2, -36, 834, -1610, -3220, 4340
1060546, -46, -45, 864, 2310, -5320, 5950
1060566, -62, -44, 855, 140, -7980, 3780
1060586, -44, -41, 850, -1890, 700, -2590
1060606, -51, -18, 862, -3640, 5530, -6580
1060626, -57, -27, 903, -5040, 3850, -7700
1060646, -80, -22, 914, -3220, 770, -2800
1060666, -93, 0, 932, -3990, -4830, -1050
1060686, -124, -10, 950, -1960, -10920, 560
1060706, -124, -45, 955, 5390, -10500, 3850
1060726, -88, -50, 946, 9800, -2590, 1610
1060746, -91, -31, 882, 5880, -70, -7350
1060766, -156, -19, 861, -1750, -8260, -14630
1060786, -119, -29, 862, -3080, -14000, -11830
1060806, -50, -42, 867, -630, -8120, -9520
1060826, -106, -40, 879, -2800, -6510, -11340
1060846, -147, -14, 986, -13300, -28980, -9590
1060866, -146, 6, 1067, -25270, -44800, -8540
1060886, -95, 4, 1073, -21980, -29890, -4130
1060906, -48, -31, 1042, -7490, -1890, 840
1060926, -31, -59, 1117, 3010, 12110, 5110
1060946, -61, -24, 1191, 3990, 5250, 6580
1060966, -47, 0, 1189, -420, -7770, 1680
1060986, 8, -22, 1176, -1540, -1750, -5950
1061006, 32, -59, 1124, 6510, 14070, -7000
1061026, 5, -26, 1061, 13230, 25130, -6020
1061046, -84, 4, 1074, 10080, 15190, -7700
1061066, -67, -6, 1075, 700, -4130, -8050
1061086, -5, -26, 992, 140, -2800, -7700
1061106, 18, -2, 944, 8680, 11480, -6720
1061126, -59, 27, 916, 14280, -7490, -1960
1061146, -91, 17, 1003, 24430, -21070, 6440
1061166, -55, 14, 972, 25760, -9590, 2940
1061186, -27, 0, 847, 13930, 12180, -5600
1061206, 25, 22, 846, -6720, 10010, -11060
1061226, -33, 51, 986, -13370, -7910, -10780
1061246, -56, 30, 1123, -9310, -23450, -6440
1061266, 2, -38, 1050, 0, 2100, -8470
1061286, -10, -35, 936, 3850, 33460, -15820
1061306, -27, -3, 948, -16590, 25760, -21770
1061326, -99, 17, 1019, -23590, 2380, -18970
1061346, -106, -7, 1056, -9240, -10920, -7490
1061366, -90, -7, 1026, 3850, -5670, 3290
1061386, -54, -8, 988, 9310, -560, 5180
1061406, -29, -1, 967, 16310, 4130, 4270
1061426, -105, 11, 997, 16590, -7560, 4130
1061446, -117, 34, 1005, 9310, -22400, 6510
1061466, -38, 25, 967, 3990, -8540, 8610
1061486, 31, 20, 964, 4550, 15120, 6090
1061506, -13, 17, 970, 7280, 19320, -1960
1061526, -129, 50, 1004, 4410, -10710, -8610
1061546, -118, 71, 1082, -4620, -40810, -10640
1061566, -21, 37, 1034, -3220, -30730, -6230
1061586, 44, -2, 951, 4830, -2730, -4270
1061606, 36, -8, 946, 3290, 490, -5810
1061626, -9, 34, 963, -7980, -21210, -8750
1061646, 3, 47, 984, -17010, -33600, -7770
1061666, 56, 15, 975, -12880, -15890, -2870
1061686, 50, 11, 1020, -1400, 6790, 980
1061706, -35, 33, 1062, -1050, 7560, -1470
1061726, -99, 50, 1060, -10010, -6020, -6790
1061746, 19, 11, 1025, -5880, -1820, -9520
1061766, 137, -20, 984, 12250, 25480, -15260
1061786, -19, -19, 942, 20230, 23310, -23100
1061806, -130, 26, 966, -4830, -14840, -28840
1061826, -101, -17, 962, -27580, -38990, -21490
1061846, 4, -31, 1016, -27230, -19390, -3080
1061866, 18, -16, 1084, -26460, 4690, 6160
1061886, 2, 14, 1110, -36120, 4130, 4550
1061906, -56, -19, 1033, -35420, -3290, 2800
1061926, -4, -48, 990, -15050, 630, 6090
1061946, 44, -47, 993, 70, 10150, 7280
1061966, 24, -2, 1060, -2310, 10850, 6440
1061986, -45, -22, 1025, -7840, -3640, 9240
1062006, -22, -50, 998, 13580, -8680, 18830
1062026, 56, -57, 973, 11060, -6930, 15540
1062046, 63, -54, 957, -1120, -22890, 10780
1062066, 14, -40, 995, -13580, -46410, 7910
1062086, 46, -35, 1053, -14630, -52220, 6230
1062106, 99, -41, 1027, -280, -23870, 2100
1062126, 145, -50, 960, 11760, 3290, -2660
1062146, 45, -27, 938, 16520, -10080, 1680
1062166, -37, -12, 983, 16380, -44660, 10360
1062186, -27, -3, 1029, 21980, -35770, 9450
1062206, 83, -2, 1057, 18410, -1960, 630
1062226, 126, -12, 1030, 8260, 10500, -3570
1062246, 85, -8, 1010, -5600, -10990, -1960
1062266, 100, -22, 946, -17780, -28490, 700
1062286, 97, -26, 962, -27230, -14000, -4200
1062306, 116, -41, 1060, -33460, 4900, -2870
1062326, 132, -47, 1147, -29120, -1190, 9100
1062346, 165, -72, 1089, -23800, -27370, 21000
1062366, 186, -91, 1004, -19670, -34930, 21140
1062386, 223, -65, 944, -10220, -28210, 10010
1062406, 175, -60, 900, 6650, -13230, -5950
1062426, 80, -51, 895, 13300, -350, -10360
1062446, 34, -30, 906, 10920, 2100, -11410
1062466, 79, -44, 910, 6650, -5460, -10780
1062486, 115, -36, 945, 12950, -4410, -7840
1062506, 102, -18, 945, 24150, -3640, -5670
1062526, 79, -3, 933, 25060, -4760, -6090
1062546, 78, 21, 934, 30380, -8960, -6020
1062566, 179, 26, 977, 46900, -9730, -6090
1062586, 174, 23, 1013, 51380, 1260, -11550
1062606, 129, 40, 1037, 35560, 15470, -16660
1062626, 129, 44, 1028, 22400, 18830, -8330
1062646, 112, 41, 993, 33530, 19810, -980
1062666, 92, 103, 1041, 66500, 17290, 7910
1062686, 132, 198, 1069, 91910, 15890, 9940
1062706, 132, 150, 1136, 58170, 15820, -4340
1062726, 144, 125, 1138, -17780, 17150, -11690
1062746, 160, 62, 1123, -59920, 20090, -15050
1062766, 118, 23, 1050, -72310, 21350, -6510
1062786, 77, 13, 1016, -55860, 16030, 7490
1062806, 61, 61, 1014, -39340, 11060, 13930
1062826, 37, 47, 1027, -24850, 12250, 10920
1062846, 34, 50, 1027, -19530, 14140, 12600
1062866, 16, 32, 1018, -21490, 17570, 10010
1062886, -12, 25, 1005, -27650, 21700, 7700
1062906, -38, 19, 1013, -37100, 22680, 10710
1062926, -20, 22, 1064, -30380, 19880, 10990
1062946, 12, -3, 1093, -21980, 17570, 10010
1062966, 20, -20, 1124, -21630, 16520, 10150
1062986, 52, -38, 1165, -13300, 16450, 9520
1063006, 46, -36, 1162, -6300, 17780, 7140
1063026, 8, -5, 1157, -5950, 17430, 4620
1063046, 11, -15, 1179, -6580, 15750, 2310
1063066, 48, -55, 1187, -5110, 11130, 350
1063086, 43, -64, 1179, -3850, 7000, -1750
1063106, 15, -42, 1190, -3780, 7140, -3220
1063126, 16, -35, 1232, -1960, 10080, -3640
1063146, 17, -31, 1272, 3990, 10360, -3080
1063166, 25, -22, 1292, 13230, 8330, -6020
1063186, 31, -12, 1291, 20930, 5320, -8680
1063206, 18, -5, 1269, 20580, 2520, -10360
1063226, -21, 3, 1238, 21210, 1260, -9520
1063246, -31, 31, 1215, 27440, 1260, -9310
1063266, -31, 30, 1194, 30590, -560, -11130
1063286, -33, 38, 1176, 30240, -490, -12810
1063306, -59, 33, 1137, 29890, 2030, -15400
1063326, -84, 35, 1088, 25480, 7700, -13790
1063346, -58, 39, 1075, 21840, 12320, -12040
1063366, -46, 53, 1072, 17640, 14840, -16170
1063386, -69, 78, 1052, 8890, 13230, -23520
1063406, -31, 30, 1012, -7280, 9030, -22890
1063426, -12, 46, 997, -8820, 6510, -18410
1063446, -26, 76, 1001, 13020, 8400, -15330
1063466, -51, 79, 1003, 14350, 9380, -12320
1063486, -57, 58, 981, 0, 7280, -1960
1063506, -81, 71, 990, -7700, 2450, 5320
1063526, -35, 78, 1013, -280, -1960, 6580
1063546, -5, 66, 1006, 4480, 280, 1890
1063566, -59, 81, 982, -3570, 2730, -4200
1063586, -86, 54, 1001, -11970, -1260, -1820
1063606, -68, 38, 1009, -15960, 2030, 2170
1063626, -38, 38, 1034, -11480, 9730, 2380
1063646, -54, 32, 992, -8260, 12180, -420
1063666, -84, 18, 952, -8610, 6580, -4340
1063686, -112, 34, 953, -4900, -2940, -1610
1063706, -64, 55, 998, 4690, -630, 770
1063726, -18, 27, 932, 2310, 9100, -1750
1063746, -166, 5, 920, -8540, 17780, -4060
1063766, -128, 0, 861, -14700, 32060, 3010
1063786, -108, 28, 855, -5320, 15190, 1260
1063806, -41, 28, 861, -17710, -21350, 6790
1063826, -136, 1, 861, -19110, -29050, 11060
1063846, -81, -62, 698, -22470, -5180, 28350
1063866, 46, 52, 810, -19600, 28980, 16940
1063886, -59, -21, 763, -6790, 13020, 19320
1063906, -75, 5, 845, -18200, -2240, 18270
1063926, -85, -20, 895, -16240, -8890, 16940
1063946, -95, -24, 891, -4130, 7280, 15470
1063966, -45, 1, 870, -1120, 20930, 14280
1063986, -74, -8, 889, 910, 22820, 17640
1064006, -121, -17, 925, 6230, 2170, 14840
1064026, -84, 6, 945, 6930, -26880, -3850
1064046, -48, 31, 982, -1540, -30590, -17220
1064066, -7, 20, 1010, -8750, -20440, -23870
1064086, -15, 20, 948, -6930, -1050, -18130
1064106, -35, 18, 901, -5180, 1820, -9800
1064126, -73, 13, 936, -7070, -1470, -6300
1064146, -114, -54, 1051, -10360, -3220, -5880
1064166, -77, -24, 1088, -14910, -5530, -7910
1064186, -7, -24, 1030, -19670, -7490, -10500
1064206, -27, -48, 957, -19250, -6860, -9310
1064226, -39, -29, 936, -17780, -3430, -5110
1064246, -40, -28, 991, -16100, -4620, -5600
1064266, -58, -39, 990, -12250, -7420, -3850
1064286, -51, -42, 1010, -630, -6370, 1120
1064306, -47, -36, 974, 7560, -4690, 4410
1064326, -28, -33, 950, 10150, -1470, 4130
1064346, -9, -1, 932, 19110, 10850, 9170
1064366, -57, -2, 935, 27090, 19250, 14280
1064386, -117, 7, 961, 29190, 20300, 19670
1064406, -145, 47, 975, 37100, 26600, 24990
1064426, 31, 811, -576, 43960, 38360, 26950
1064446, -189, 102, 1210, 37030, 47250, 28070
1064466, -24, 59, 1176, -14560, 18060, 13580
1064486, -101, 0, 1234, -57120, -7420, -17710
1064506, -164, 171, 1007, -35140, -16730, -14700
1064526, -193, 8, 913, 1330, -17220, -11620
1064546, -37, 8, 890, 9170, -9870, -6650
1064566, -68, 0, 1028, 13860, 1540, -1050
1064586, -35, 15, 981, 31220, 630, 14420
1064606, -67, 40, 915, 26250, -12460, 12950
1064626, -151, -238, 1003, 22330, -8330, 5880
1064646, -7, 3, 1216, 2520, 1750, 420
1064666, -24, 38, 1242, -32690, -6230, -10500
1064686, -89, 47, 952, -21210, -5180, -16030
1064706, -132, 29, 848, -1400, -12250, -9730
1064726, -127, 28, 1018, 11410, -1820, -1050
1064746, -96, 32, 1063, 17430, 4690, 3010
1064766, -59, 46, 1014, 3850, -2520, -5670
1064786, -64, 48, 983, -7000, -3780, -11550
1064806, -74, 40, 964, -10430, -630, -12180
1064826, -82, 35, 963, -10430, -2660, -10010
1064846, -91, 32, 988, -4200, -980, -3710
1064866, -78, 34, 1029, 1400, -350, 0
1064886, -77, 30, 1040, 3850, -1470, 1330
1064906, -70, 35, 997, 1050, -3360, -980
1064926, -64, 37, 976, -2520, -3360, -3570
1064946, -72, 39, 989, -2310, -3500, -2380
1064966, -80, 34, 1015, 3920, -2590, 1820
1064986, -68, 48, 1000, 9380, -4970, 3710
1065006, -81, 54, 984, 15820, -4060, 2590
1065026, -61, 65, 930, 22190, 490, 3360
1065046, -278, 76, 905, 32060, 7910, 8050
1065066, -14, 22, 1285, -2170, 5600, 10010
1065086, -4, 104, 1139, -18760, -21420, -9380
1065106, -146, 55, 922, -4410, -13930, -15120
1065126, -56, 48, 872, -10360, -8750, -12600
1065146, -93, 41, 1048, -3710, 3990, -2590
1065166, -57, 67, 1019, 9870, 70, 7070
1065186, -73, 66, 923, 10780, -5110, 2170
1065206, -382, -375, 864, 21770, 5180, 2100
1065226, -87, 29, 1146, -13510, 15050, 980
1065246, 62, 64, 1400, -58450, -7070, -10150
1065266, -39, 85, 1126, -34370, -6300, -17430
1065286, -105, 23, 750, 6510, 1960, -15190
1065306, -50, 15, 921, -1190, 2870, -17080
1065326, -83, 21, 1073, 8260, 980, -3850
1065346, -61, 51, 1089, 17080, 910, 9520
1065366, -59, 59, 1004, 3290, -2170, 4620
1065386, -44, 41, 970, -7490, -1960, -3080
1065406, -47, 47, 922, -6720, 3080, -5810
1065426, -62, 46, 975, -2310, 3920, -3780
1065446, -72, 59, 1028, 1190, 1190, 700
1065466, -73, 51, 1033, 630, -1190, 2240
1065486, -81, 45, 1011, 1400, 1750, 3290
1065506, -68, 50, 1005, 2380, 2590, 2520
1065526, -52, 41, 1004, 1120, 420, -420
1065546, -53, 47, 997, -140, 210, -1540
1065566, -57, 58, 991, 1330, 1190, -350
1065586, -72, 44, 987, 3850, -1330, 1260
1065606, -76, 48, 937, 17710, 3500, 4620
1065626, -51, 57, 964, 21560, 9450, 6580
