T [ms],AccX [mg],AccY [mg],AccZ [mg],GyroX [mdps],GyroY [mdps],GyroZ [mdps]
69492, -341, -595, 794, -9520, 3850, -1960
69512, -331, -613, 763, -24710, -4200, -7140
69532, -327, -664, 692, -43400, -9310, -4410
69552, -287, -678, 689, -43890, -12040, -1260
69572, -277, -640, 687, -25060, -7070, -980
69592, -312, -618, 710, -14280, -3640, 2030
69612, -348, -652, 729, -23030, -6230, 560
69632, -361, -683, 693, -45500, -11200, -7770
69652, -328, -685, 617, -69020, -12320, -22680
69672, -315, -730, 620, -82810, -8470, -36960
69692, -299, -797, 669, -88760, -4620, -39760
69712, -288, -816, 647, -102970, 8330, -35490
69732, -268, -811, 584, -119700, 18060, -18900
69752, -27, -903, 451, -121590, -5810, 18270
69772, -131, -878, 657, -76370, -31290, 17570
69792, -203, -847, 655, -910, 83510, -38290
69812, -308, -845, 500, 32270, 113610, 23170
69832, -429, -862, 465, 10990, 110250, 88900
69852, -419, -771, 447, 14140, 128800, 84910
69872, -624, -760, 678, 44800, 126280, 59080
69892, -650, -582, 874, 91350, 122920, 43120
69912, -525, -423, 642, 94500, 76300, 8120
69932, 159, -620, 556, -11480, -74480, -51100
69952, -237, -771, 683, -53900, -222250, -70000
69972, -553, -1038, 465, -24850, -83230, -67620
69992, -204, -1125, 515, -73570, 73640, -90720
70012, -236, -766, 611, -21000, -36190, -35000
70032, -345, -704, 627, 28770, -1470, 7630
70052, -246, -599, 683, -18620, 2170, -7980
70072, -340, -634, 537, -89180, 14980, -77000
70092, -340, -758, 432, -77560, -43960, -213430
70112, -255, -775, 257, -93730, -35350, -239120
70132, 135, -1091, 643, -86730, -8540, -152320
70152, -179, -1187, 222, -113960, -840, -50680
70172, -189, -927, 88, -195580, -97790, -118650
70192, -298, -916, 233, -72870, -91280, -111580
70212, 479, -816, 624, 86170, -161070, -65940
70232, 27, -370, 149, 11690, -76160, 15680
70252, -86, -647, 34, -153650, -53620, 58730
70272, -151, -921, -147, -290570, -66150, 96180
70292, -19, -883, -183, -255220, -93800, 171080
70312, -71, -836, -27, -205590, -10290, 181370
70332, -109, -744, 47, -200130, 181440, 133350
70352, -216, -712, 163, -250740, 283290, 59990
70372, -192, -849, -101, -387730, 282450, -28350
70392, -463, -771, -597, -559440, 152180, -96250
70412, 300, -665, -1997, -653240, 145740, -275100
70432, 554, -282, -1276, -547680, 459620, -350700
70452, 200, -645, -162, -349440, 541800, -142310
70472, 448, -695, -1060, 55440, 350, 112560
70492, 710, -435, -719, -280, -326410, 17990
70512, 194, -468, -882, -41930, -51380, -46760
70532, 246, -505, -752, -17780, 25970, 40810
70552, 215, -465, -719, -10360, 3850, 37520
70572, 289, -486, -721, 12320, -16170, 50680
70592, 331, -550, -745, 27930, -41020, 41580
70612, 301, -557, -840, 42840, -70350, 28070
70632, 230, -634, -802, 37870, -76510, 35980
70652, 190, -603, -812, 44590, -87640, 43540
70672, 162, -629, -770, 33530, -55650, 28630
70692, 159, -631, -776, 30590, -47530, 18410
70712, 102, -666, -795, 25830, -63000, 12670
70732, 52, -638, -803, 13650, -64400, 6440
70752, -7, -652, -747, 12180, -76650, 10570
70772, 60, -693, -871, 31290, -97720, 17640
70792, 17, -783, -913, 58100, -129640, 32480
70812, -134, -741, -910, 71400, -129920, 49700
70832, -380, -893, -624, 124040, -160300, 96320
70852, -419, -762, -388, 248570, -265090, 147910
70872, 355, -882, -1188, 405020, -359240, 167510
70892, -603, -831, -191, 499030, -484050, 190050
70912, -670, -662, -361, 415520, 118090, 214340
70932, -1060, -607, 126, 481460, 134610, 226940
70952, -1035, -154, 330, 473060, 337890, 57260
70972, -1167, -608, 722, 363160, 341530, -118930
70992, -866, -714, 297, 43750, -88970, -86870
71012, -92, -1218, -81, -147770, -364770, -100240
71032, -109, -687, 160, -70350, -144200, -139160
71052, -235, -839, 101, -26880, 16870, -74130
71072, -467, -794, 205, -17570, 26530, 30870
71092, -527, -864, 197, -17780, 53550, 55860
71112, -479, -859, 158, -37100, 32830, 70350
71132, -595, -822, 158, -47670, 44800, 79940
71152, -604, -864, 141, -57960, 67270, 79380
71172, -624, -895, 83, -73640, 55930, 81130
71192, -662, -864, 49, -82320, 54460, 95760
71212, -699, -871, 34, -80360, 61740, 105210
71232, -793, -908, 0, -79380, 58030, 105000
71252, -850, -919, -34, -81620, 50540, 106470
71272, -863, -858, -70, -89040, 46060, 114660
71292, -950, -831, -115, -101150, 49770, 119350
71312, -946, -762, -169, -107380, 74200, 116690
71332, -940, -730, -257, -109760, 99190, 98840
71352, -899, -694, -300, -98910, 97930, 58730
71372, -812, -617, -291, -74620, 68670, 8680
71392, -738, -579, -291, -40180, 30380, -38220
71412, -709, -618, -304, -17150, -1750, -90230
71432, -691, -670, -328, -1260, -32060, -138320
71452, -629, -637, -321, 24150, -50470, -168000
71472, -619, -658, -236, 50400, -47110, -191240
71492, -617, -818, -187, 59710, -56630, -218680
71512, -508, -945, -180, 62930, -118370, -286720
71532, -183, -968, -124, 87990, -246890, -383810
71552, -125, -1066, -145, 100240, -337120, -379820
71572, -364, -1142, -207, -38430, -279440, -143780
71592, -540, -1151, -367, -207200, -190890, 208320
71612, -557, -1089, -341, -286580, -58520, 369320
71632, -459, -923, -285, -195860, 40530, 289730
71652, -360, -802, -252, -3430, 103600, 72730
71672, -296, -860, -222, 122640, 212940, -125650
71692, -304, -1003, -251, 192150, 318360, -192150
71712, -435, -1152, -296, 182770, 431970, -108710
71732, -640, -1231, -411, 159460, 515410, 82600
71752, -715, -1207, -434, 136430, 594580, 250110
71772, -606, -957, -404, 199990, 650930, 261310
71792, -533, -756, -343, 360500, 662620, 162610
71812, -533, -686, -336, 481670, 796250, 68740
71832, -562, -728, -363, 413140, 908880, 90860
71852, -610, -796, -394, 349930, 987490, 152880
71872, -650, -827, -418, 324380, 1019270, 232540
71892, -724, -855, -433, 331520, 1017380, 317660
71912, -731, -792, -428, 366800, 1002050, 346780
71932, -758, -758, -431, 398160, 1004990, 306880
71952, -752, -729, -426, 429590, 1025920, 220080
71972, -724, -664, -418, 470750, 1040130, 124600
71992, -774, -753, -473, 504980, 1059870, 53480
72012, -915, -754, -513, 551040, 1078490, 17150
72032, -710, -578, -538, 623910, 1119370, -45220
72052, -697, -512, -513, 583660, 1253770, -102900
72072, -794, -535, -575, 546210, 1347780, 42770
72092, -685, -314, -430, 598990, 1303820, 236810
72112, -839, -454, -545, 605220, 1245930, 378140
72132, -869, -497, -549, 473060, 1312780, 432320
72152, -742, -379, -487, 462140, 1298080, 422380
72172, -740, -377, -462, 564550, 1177120, 421750
72192, -754, -401, -434, 649250, 1096410, 407330
72212, -828, -517, -423, 684460, 1066380, 340620
72232, -814, -571, -413, 657440, 1089060, 218750
72252, -725, -518, -358, 649040, 1086190, 93170
72272, -612, -469, -266, 660170, 1047690, 29120
72292, -578, -489, -223, 600320, 1031730, 31290
72312, -572, -542, -239, 444430, 1054830, 79170
72332, -555, -587, -220, 290010, 1051820, 130760
72352, -545, -668, -183, 223020, 983150, 163240
72372, -595, -845, -168, 226870, 855050, 193200
72392, -663, -1020, -136, 245840, 707560, 200130
72412, -721, -1176, -114, 265860, 562520, 150360
72432, -619, -1150, -78, 230860, 469070, 20230
72452, -496, -1056, -39, 125580, 435190, -148680
72472, -425, -966, -33, 26880, 363160, -202580
72492, -443, -931, -45, -46550, 236880, -142520
72512, -520, -969, -64, -79590, 69300, -45500
72532, -551, -988, -85, -101920, -83020, -6440
72552, -548, -989, -93, -153440, -180460, -77420
72572, -550, -1007, -132, -224770, -248570, -183960
72592, -579, -1013, -185, -301420, -324100, -236390
72612, -612, -952, -201, -331170, -453040, -203910
72632, -610, -839, -220, -317240, -619990, -117110
72652, -598, -743, -254, -355600, -727510, -59710
72672, -641, -740, -310, -449960, -761180, -53200
72692, -710, -786, -364, -529480, -780500, -59290
72712, -733, -798, -394, -478870, -898730, -139580
72732, -706, -761, -383, -417130, -962990, -209650
72752, -680, -746, -392, -411110, -997990, -239610
72772, -681, -753, -411, -433650, -1018850, -212450
72792, -681, -741, -404, -436170, -1036350, -163170
72812, -666, -730, -393, -438480, -1033480, -138950
72832, -629, -721, -377, -457870, -999320, -140980
72852, -620, -772, -372, -482440, -945980, -144690
72872, -633, -856, -392, -483980, -897260, -135800
72892, -649, -947, -391, -438550, -882210, -121380
72912, -646, -1020, -379, -366450, -882700, -102900
72932, -606, -1036, -351, -308350, -870170, -85120
72952, -610, -1113, -460, -288190, -826280, -63840
72972, 1990, -438, -1997, -211680, -813540, -24010
72992, -847, -884, -274, 332850, -408170, 88900
73012, -515, -929, -158, 507990, 438200, 172760
73032, -693, -956, -77, 261310, 502180, 110040
73052, -462, -968, -81, 117670, 525070, 78820
73072, -550, -1025, -25, -134960, 475510, -2660
73092, -975, -504, 518, -118720, 419580, -52150
73112, -765, -892, 40, -38710, 291970, -144550
73132, -502, -973, -524, 80080, 97510, -168490
73152, -782, -897, -422, 205870, 39550, -80780
73172, -585, -855, -246, 113470, 72730, 155260
73192, -611, -1041, -323, -16380, 43680, 244930
73212, -726, -985, -371, -56000, -34230, 144340
73232, -822, -963, -398, -31500, -105840, 38570
73252, -813, -1000, -391, -33880, -96810, 39130
73272, -785, -1179, -468, -39340, -100730, 88550
73292, -806, -1127, -482, -25550, -130200, 109340
73312, -865, -1051, -408, -15120, -147980, 99330
73332, -843, -1080, -376, -29050, -162120, 90160
73352, -831, -1116, -381, -35770, -171780, 97860
73372, -825, -1072, -302, -14630, -161770, 109480
73392, -835, -959, -174, -8820, -135520, 100170
73412, -763, -799, -124, -23030, -134120, 68250
73432, -654, -720, -166, 1820, -149870, 57680
73452, -613, -712, -131, 38430, -151550, 75880
73472, -483, -724, -165, 48720, -153300, 87990
73492, -507, -736, -58, 48230, -137900, 90300
73512, -514, -680, 30, 39340, -109340, 76930
73532, -589, -579, 40, 41440, -94570, 60760
73552, -705, -423, 141, 63490, -65310, 70210
73572, -469, -363, -8, 65310, -14910, 123340
73592, -214, -198, 49, 74480, -48580, 216440
73612, -576, -288, 191, 29330, -45570, 70840
73632, -597, -222, 217, 19390, -35980, 14070
73652, -610, -203, 252, 4970, -12740, 20160
73672, -658, -206, 296, -12950, -13930, 2100
73692, -676, -194, 302, -7420, -38430, -17990
73712, -723, -194, 321, 6790, -60200, -17360
73732, -743, -222, 373, 13580, -89110, -25620
73752, -770, -208, 404, 13930, -141400, -49000
73772, -791, -156, 531, 17710, -205240, -72380
73792, -758, -128, 536, 8260, -298760, -109620
73812, -137, -171, 590, -23450, -455280, -174370
73832, -193, -460, 651, -151130, -371770, -188090
73852, -583, -555, 765, -179760, -7630, -77700
73872, -521, -546, 712, -120680, 47390, -49280
73892, -525, -503, 681, -77770, 16660, -25550
73912, -478, -557, 606, -54880, 21700, -4480
73932, -484, -627, 579, -50820, 18690, -4620
73952, -509, -626, 583, -43400, 14350, -5040
73972, -507, -647, 594, -24920, 17080, 770
73992, -557, -622, 646, -18270, 13370, 1120
74012, -554, -601, 649, -18550, 10640, 1120
74032, -528, -625, 580, -15260, 5110, 7420
74052, -514, -630, 500, -12530, 1120, 16520
74072, -499, -663, 493, -16940, 3920, 17430
74092, -510, -657, 514, -31500, 5600, 12040
74112, -526, -622, 532, -33180, 10780, 5740
74132, -522, -606, 547, -16310, 16240, 5180
74152, -462, -615, 484, -2380, 12950, 7490
74172, -386, -581, 365, 7560, 9240, 10570
74192, -359, -571, 315, 3710, 9520, 4690
74212, -349, -538, 331, -17150, 14350, -6580
74232, -343, -512, 304, -30310, 21070, -15050
74252, -346, -559, 299, -18830, 36750, -14840
74272, -342, -540, 224, -8330, 54320, -16940
74292, -187, -615, 40, -630, 58170, -27440
74312, -1, -435, -188, 12460, 53410, -27930
74332, 4, -256, -139, 47040, 100520, 10500
74352, 23, -83, -101, 117390, 241360, 114940
74372, -63, -27, -40, 176050, 342790, 261380
74392, -158, -63, -53, 219170, 339780, 439180
74412, -368, -309, -139, 169750, 342720, 561680
74432, -878, -1046, -402, 89600, 380940, 584220
74452, -1998, -1998, -1314, 87010, 406210, 464310
74472, -1444, -1998, -285, 348670, 357140, -14630
74492, 68, -1173, -32, 436030, 320530, -1150870
74512, -387, -952, -390, -301000, 426230, -97930
74532, -847, -1494, -581, -168630, 224630, 337330
74552, -1998, -1998, -1039, 423990, -76860, 225820
74572, -1595, -1998, -125, 873810, -236250, -484050
74592, -190, -1819, -327, 234010, 252560, -1048530
74612, -611, -1576, -472, -50260, 293510, -437780
74632, -596, -1438, -336, 428820, -148610, 129290
74652, -1295, -1998, -236, 582470, -246820, 176890
74672, -1328, -1998, -518, 239540, 84980, -151620
74692, -559, -1684, -477, 42070, 357350, -659540
74712, -296, -1198, -223, 393050, 17430, -441490
74732, -320, -979, -27, 537390, -224980, -42910
74752, -675, -1249, -206, 286440, -145670, 177940
74772, -660, -1204, -291, -24430, 82180, 93940
74792, -532, -1008, -282, -37660, 175840, -179340
74812, -374, -819, -239, 187250, 46480, -305830
74832, -104, -537, -47, 388360, -116270, -291830
74852, -49, -444, 3, 339710, -113610, -198660
74872, -108, -422, -62, 117040, -11410, -31710
74892, -155, -413, -132, -71960, 77000, 111930
74912, -211, -466, -162, -162400, 151830, 162680
74932, -218, -494, -161, -141890, 190540, 153230
74952, -203, -481, -136, -13510, 159670, 132300
74972, -205, -487, -115, 136640, 109060, 121100
74992, -207, -511, -61, 219730, 102620, 105000
75012, -263, -665, -35, 200130, 161770, 82390
75032, -483, -1115, -165, 39970, 297150, 66430
75052, -705, -1617, -325, -212520, 478170, 52990
75072, -655, -1481, -264, -306740, 522200, 39900
75092, -553, -1200, -121, -121030, 332080, 77490
75112, -564, -1216, -91, 42910, 166600, 94010
75132, -815, -1759, -237, -36610, 186130, 25830
75152, -1008, -1998, -363, -260610, 328580, -110110
75172, -992, -1998, -288, -307580, 342580, -223090
75192, -920, -1998, -199, -146230, 120750, -145040
75212, -1011, -1998, -313, -140210, -23240, -31430
75232, -949, -1998, -330, -341810, 29750, -81760
75252, -734, -1731, -194, -385560, 8890, -198940
75272, -601, -1458, -160, -279930, -145530, -206570
75292, -766, -1652, -280, -318640, -224700, -128450
75312, -899, -1852, -361, -489860, -198660, -46830
75332, -734, -1525, -285, -556780, -219940, -21350
75352, -563, -1234, -220, -472570, -328160, -40460
75372, -565, -1182, -255, -422870, -408380, -31570
75392, -708, -1314, -322, -508620, -448910, 157220
75412, -735, -1307, -313, -430570, -531230, 212240
75432, -620, -1112, -269, -348670, -582120, 173740
75452, -500, -894, -234, -335580, -573510, 109270
75472, -425, -752, -236, -341600, -559440, 89180
75492, -396, -651, -221, -307230, -570220, 108010
75512, -338, -546, -199, -237230, -594510, 121030
75532, -289, -461, -166, -175000, -595490, 107100
75552, -228, -379, -140, -152110, -557830, 73570
75572, -186, -328, -122, -168560, -490630, 35700
75592, -158, -297, -114, -204680, -408590, 6510
75612, -138, -279, -109, -231630, -337680, -9240
75632, -122, -269, -107, -235830, -287140, -11060
75652, -113, -274, -103, -220360, -251790, -4620
75672, -111, -288, -103, -192150, -223230, 4480
75692, -109, -313, -91, -156240, -197540, 14420
75712, -107, -354, -85, -123970, -167090, 27930
75732, -158, -493, -87, -110390, -124740, 50610
75752, -319, -880, -141, -126420, -63280, 83090
75772, -658, -1671, -219, -175700, 29120, 101780
75792, -956, -1998, -529, -275100, 176050, 73010
75812, -680, -1802, -268, -287560, 226800, 89880
75832, -533, -1327, -209, -97930, 94360, 171780
75852, -617, -1386, -246, -154350, 150010, 233730
75872, -876, -1998, -392, -244650, 248360, 209580
75892, -1105, -1998, -487, -300230, 349580, 103250
75912, -876, -1998, -302, -239400, 365260, 38010
75932, -948, -1998, -393, -168560, 311570, 89320
75952, -1093, -1998, -468, -313950, 399700, 139370
75972, -1055, -1998, -413, -335230, 432180, 62160
75992, -832, -1998, -261, -214130, 391930, -63980
76012, -835, -1998, -351, -159110, 355110, -82110
76032, -876, -1959, -391, -308560, 438970, -45430
76052, -782, -1774, -324, -301420, 428260, -45920
76072, -633, -1506, -182, -151690, 351680, -108430
76092, -569, -1390, -259, -50960, 307020, -154630
76112, -441, -1124, -225, -124110, 395500, -199780
76132, -341, -888, -200, -130130, 442960, -199710
76152, -300, -719, -186, -34440, 388640, -124250
76172, -282, -599, -181, 7490, 384650, -50960
76192, -250, -500, -177, 40460, 403270, -17150
76212, -236, -438, -181, 100590, 406840, -12320
76232, -218, -376, -178, 148960, 429870, -15400
76252, -183, -297, -153, 194320, 464240, -21420
76272, -153, -242, -151, 244790, 490420, -11340
76292, -164, -220, -142, 267820, 554750, 77140
76312, -180, -204, -138, 242340, 596680, 141890
76332, -195, -195, -145, 210350, 629090, 196350
76352, -253, -251, -158, 155540, 673470, 234850
76372, -327, -361, -180, 93170, 720020, 246680
76392, -502, -653, -221, 49070, 751730, 228130
76412, -1043, -1651, -362, 50820, 752850, 157780
76432, -1767, -1998, -548, 117740, 722330, -42350
76452, -1045, -1998, -254, 176820, 683480, -378420
76472, -652, -1563, -192, 94850, 636230, -416220
76492, -795, -1609, -283, 12880, 534870, -191170
76512, -1317, -1998, -407, 66850, 405160, -121520
76532, -1371, -1998, -358, 178080, 296660, -299880
76552, -930, -1998, -244, 189280, 256340, -576380
76572, -949, -1998, -317, 79800, 202160, -556290
76592, -1248, -1998, -364, 44240, 40810, -312200
76612, -1165, -1998, -299, 58030, -104720, -257110
76632, -864, -1790, -240, -38360, -108500, -456120
76652, -770, -1716, -246, -136360, -125720, -572320
76672, -808, -1739, -226, -137060, -266000, -471870
76692, -807, -1600, -214, -171430, -396270, -325500
76712, -721, -1327, -244, -328510, -403620, -285530
76732, -591, -1014, -239, -479500, -373870, -325850
76752, -507, -820, -225, -505330, -419930, -346360
76772, -463, -712, -217, -468300, -522270, -302680
76792, -439, -636, -227, -448280, -620410, -214270
76812, -447, -576, -235, -458640, -687120, -111510
76832, -457, -522, -248, -477470, -727370, -14840
76852, -455, -460, -252, -481250, -759150, 52360
76872, -426, -386, -243, -466060, -777700, 78680
76892, -368, -301, -227, -438900, -783720, 69580
76912, -320, -231, -209, -416710, -769720, 34580
76932, -258, -169, -187, -413770, -727720, -14700
76952, -209, -126, -167, -422310, -671300, -66920
76972, -158, -91, -150, -437220, -603540, -111160
76992, -124, -80, -135, -452550, -531930, -146300
77012, -104, -92, -126, -467670, -456820, -172060
77032, -101, -129, -124, -475580, -385210, -185290
77052, -112, -199, -126, -464660, -328300, -182490
77072, -147, -363, -149, -427490, -292950, -164850
77092, -303, -859, -204, -360780, -278670, -132300
77112, -838, -1998, -177, -263970, -284550, -76930
77132, -1718, -1998, -634, -157360, -305760, 24780
77152, -641, -1339, -330, -309750, -247450, 328790
77172, -553, -1017, -254, -416640, -198380, 304500
77192, -467, -1123, -213, -217980, -198870, 185150
77212, -753, -1998, -313, -102060, -234430, 122080
77232, -1644, -1998, -616, -162540, -202230, 317940
77252, -939, -1909, -391, -259770, -211470, 532840
77272, -774, -1526, -325, -204610, -228690, 503020
77292, -813, -1998, -340, -77770, -227780, 333340
77312, -1169, -1998, -457, -13440, -203490, 230300
77332, -869, -1998, -399, -73850, -143150, 276290
77352, -837, -1803, -382, -90860, -150430, 432810
77372, -723, -1602, -333, -21070, -159390, 482370
77392, -725, -1662, -317, 70350, -121730, 362740
77412, -611, -1596, -285, 75320, -9870, 222180
77432, -466, -1341, -251, 74690, 67690, 166670
77452, -452, -1122, -248, 66080, 114240, 255570
77472, -436, -944, -244, 60690, 155540, 361270
77492, -417, -820, -248, 77770, 207410, 384300
77512, -382, -721, -252, 96670, 290220, 331030
77532, -330, -591, -238, 131670, 375550, 245140
77552, -291, -493, -231, 186130, 442050, 175350
77572, -276, -428, -231, 235480, 499870, 142240
77592, -298, -411, -241, 264600, 563850, 136430
77612, -346, -444, -266, 275450, 631260, 145390
77632, -380, -460, -288, 290500, 686910, 153930
77652, -379, -436, -292, 336840, 716240, 157220
77672, -375, -419, -278, 406490, 723240, 169120
77692, -386, -443, -255, 474460, 715120, 207340
77712, -463, -599, -246, 512120, 704060, 271530
77732, -644, -932, -253, 484820, 719040, 339010
77752, -863, -1461, -334, 373030, 780080, 377720
77772, -1009, -1823, -388, 199010, 854490, 375830
77792, -1002, -1915, -360, 66640, 866110, 360850
77812, -1064, -1998, -347, 31360, 783720, 346220
77832, -1159, -1998, -359, -26950, 726600, 300860
77852, -1229, -1998, -437, -139300, 730380, 165480
77872, -1248, -1998, -357, -223580, 729610, -14140
77892, -1165, -1998, -317, -181300, 588070, -59500
77912, -1186, -1998, -361, -201600, 471800, -79380
77932, -1040, -1998, -283, -304920, 437500, -156310
77952, -995, -1998, -254, -284340, 340620, -258090
77972, -910, -1998, -245, -237300, 199220, -259770
77992, -866, -1907, -275, -311920, 134540, -239820
78012, -709, -1584, -210, -400820, 89110, -229810
78032, -596, -1324, -169, -374850, -17360, -245490
78052, -511, -1123, -172, -348530, -128590, -223370
78072, -482, -981, -191, -456540, -231770, -112700
78092, -463, -845, -201, -470540, -294980, -57680
78112, -412, -707, -183, -439670, -366450, -40040
78132, -356, -570, -161, -399070, -430290, -36470
78152, -303, -446, -149, -380730, -474810, -24220
78172, -287, -366, -148, -378490, -501480, -140
78192, -260, -293, -149, -365540, -530740, 20440
78212, -246, -244, -138, -342860, -553000, 26040
78232, -224, -200, -129, -325150, -558740, 14910
78252, -195, -154, -122, -316750, -552090, -8680
78272, -160, -110, -113, -325010, -523950, -40530
78292, -139, -91, -105, -350490, -473970, -79380
78312, -115, -85, -100, -384230, -410130, -123760
78332, -108, -101, -93, -415590, -338310, -169610
78352, -109, -128, -85, -436800, -265720, -212030
78372, -125, -202, -86, -445900, -199710, -250880
78392, -207, -406, -109, -447580, -135590, -283570
78412, -786, -1913, -412, -429310, -86030, -304990
78432, -1187, -1998, -661, -356440, -68250, -321090
78452, -878, -1974, -226, -338660, -104370, -142240
78472, -560, -1105, -286, -354830, -232540, 238070
78492, -601, -1096, -225, -530460, -83510, 249550
78512, -746, -1825, -312, -484400, -35840, 123620
78532, -1492, -1998, -677, -404180, -20230, 0
78552, -869, -1998, -349, -385000, 14490, 31850
78572, -869, -1714, -398, -391930, -60480, 265020
78592, -951, -1998, -408, -505260, -15750, 381010
78612, -1221, -1998, -517, -414540, -34720, 275660
78632, -781, -1998, -290, -305270, -31360, 118020
78652, -875, -1972, -395, -253470, -56490, 121170
78672, -857, -1761, -383, -387310, -20440, 343280
78692, -733, -1521, -329, -358820, -51660, 425670
78712, -490, -1154, -228, -257600, -50750, 312270
78732, -352, -985, -209, -180460, -9870, 160300
78752, -409, -1084, -238, -164010, 51520, 106890
78772, -459, -1136, -246, -163030, 110880, 145040
78792, -421, -977, -222, -105980, 116690, 206500
78812, -339, -755, -207, -46060, 132790, 230930
78832, -256, -558, -195, -38780, 205800, 199150
78852, -220, -451, -199, -35770, 293090, 143570
78872, -212, -387, -198, -13510, 370930, 101430
78892, -197, -342, -199, 42560, 427490, 76160
78912, -195, -314, -211, 126350, 455280, 67830
78932, -228, -319, -224, 214760, 469070, 78050
78952, -248, -325, -236, 293090, 489440, 96810
78972, -271, -354, -239, 455000, 518070, 126630
78992, -309, -441, -235, 522060, 523950, 158480
79012, -378, -640, -223, 553770, 533400, 213220
79032, -538, -1011, -190, 517720, 562520, 287700
79052, -800, -1524, -289, 350490, 639590, 368620
79072, -947, -1806, -374, 126770, 720160, 421680
79092, -906, -1794, -335, 56210, 663600, 453320
79112, -986, -1956, -279, 95130, 531370, 471380
79132, -1146, -1998, -355, 4200, 512960, 406490
79152, -1139, -1998, -424, -195230, 587160, 245420
79172, -1085, -1998, -369, -257180, 544810, 151340
79192, -1178, -1998, -354, -217280, 392350, 207130
79212, -1169, -1998, -396, -295680, 339080, 193130
79232, -1027, -1998, -348, -383950, 339570, 35420
79252, -902, -1998, -268, -348320, 249200, -59360
79272, -928, -1998, -288, -334250, 129430, -980
79292, -891, -1939, -325, -433160, 83860, 59780
79312, -731, -1607, -271, -478030, 36470, 25900
79332, -626, -1435, -223, -417760, -62160, -23730
79352, -589, -1331, -211, -362950, -161000, -14980
79372, -555, -1162, -220, -380240, -216370, 39410
79392, -483, -921, -207, -430010, -238000, 85470
79412, -398, -704, -181, -430780, -275100, 99820
79432, -312, -525, -151, -384440, -326060, 87080
79452, -268, -433, -128, -329070, -366660, 63630
79472, -234, -366, -117, -289450, -390530, 45290
79492, -214, -322, -111, -265510, -407680, 36120
79512, -206, -292, -108, -253400, -415240, 33040
79532, -184, -256, -106, -245000, -416080, 24570
79552, -181, -244, -105, -235410, -410200, 4550
79572, -162, -223, -99, -231280, -387940, -27090
79592, -146, -213, -90, -231210, -355460, -71680
79612, -139, -216, -85, -239190, -308840, -121170
79632, -137, -237, -80, -252840, -251790, -170800
79652, -164, -314, -83, -266910, -191520, -216090
79672, -208, -465, -106, -274190, -132580, -250460
79692, -366, -888, -151, -263760, -86590, -271530
79712, -750, -1998, -233, -233870, -54670, -273350
79732, -1105, -1998, -511, -206500, -28280, -250320
79752, -608, -1373, -242, -325850, 43960, -118860
79772, -520, -1067, -199, -375480, 8540, 69230
79792, -543, -1222, -187, -342370, -1540, 49980
79812, -858, -1998, -269, -316400, 52710, -53690
79832, -1250, -1998, -565, -294910, 91910, -146930
79852, -885, -1998, -338, -429380, 222810, -154770
79872, -764, -1703, -283, -361900, 94150, 72940
79892, -901, -1998, -328, -371840, 128450, -4340
79912, -1048, -1998, -461, -398230, 194600, -117810
79932, -846, -1998, -312, -340690, 168000, -114660
79952, -805, -1924, -318, -310170, 100870, 35420
79972, -860, -1935, -366, -392280, 139580, 81760
79992, -773, -1823, -345, -377020, 155190, -140
80012, -537, -1423, -229, -290220, 140630, -93450
80032, -391, -1109, -195, -216440, 98560, -64750
80052, -372, -959, -203, -245630, 125020, 13090
80072, -384, -906, -223, -272720, 168350, 66360
80092, -347, -811, -213, -220430, 168420, 76370
80112, -300, -709, -192, -129640, 164990, 45220
80132, -248, -599, -168, -50400, 183680, 5810
80152, -207, -516, -150, 10220, 210840, -18130
80172, -196, -482, -152, 46060, 247380, -19250
80192, -215, -496, -163, 62090, 295470, -7840
80212, -222, -502, -171, 85890, 337260, 7770
80232, -221, -493, -171, 139790, 349160, 32900
80252, -215, -469, -164, 209440, 339360, 78050
80272, -201, -422, -144, 274470, 322210, 135870
80292, -203, -403, -130, 309050, 319200, 191800
80312, -242, -453, -133, 293300, 347550, 237020
80332, -301, -581, -143, 250250, 387240, 275310
80352, -423, -871, -173, 209440, 413070, 315210
80372, -660, -1419, -214, 169680, 425810, 359870
80392, -984, -1998, -304, 114940, 430290, 408240
80412, -961, -1992, -325, 14840, 429520, 434910
80432, -747, -1617, -246, -85890, 421890, 369950
80452, -779, -1719, -255, -128590, 377230, 301210
80472, -877, -1983, -263, -157290, 317240, 286300
80492, -923, -1998, -305, -190120, 266630, 263970
80512, -812, -1873, -268, -259000, 246120, 215950
80532, -812, -1870, -283, -288750, 200130, 173320
80552, -850, -1917, -273, -281820, 122220, 179760
80572, -768, -1740, -257, -265230, 42350, 187880
80592, -656, -1491, -240, -284060, 3920, 150570
80612, -599, -1342, -228, -307370, -27860, 118580
80632, -582, -1263, -214, -291200, -87290, 121870
80652, -566, -1216, -206, -246400, -163520, 141050
80672, -535, -1161, -202, -220570, -209720, 129710
80692, -499, -1087, -203, -227220, -219870, 91700
80712, -465, -995, -200, -240940, -224770, 62300
80732, -424, -880, -182, -231000, -247660, 54810
80752, -371, -764, -157, -185500, -325360, 46550
80772, -327, -669, -135, -140910, -315700, 16240
80792, -297, -618, -129, -162260, -283080, -22050
80812, -292, -608, -132, -185990, -245770, -54040
80832, -296, -617, -142, -190050, -222250, -77980
80852, -300, -628, -143, -166600, -215810, -99750
80872, -303, -654, -140, -133070, -209440, -126700
80892, -309, -695, -129, -113610, -188160, -153580
80912, -252, -780, -210, -120470, -150080, -172060
80932, -990, -177, -223, -241150, -63210, -260820
80952, -1598, -1998, 645, -766990, -210490, -783090
80972, -501, -1252, 667, -444010, -631960, -253470
80992, 183, -366, 559, 125790, -687890, 243460
81012, -542, -1059, 386, 301350, -168420, 374220
81032, -595, -1185, 220, 346640, 50610, 220080
81052, -369, -609, 302, 245070, 44380, 2240
81072, -479, -488, 258, 147210, 80850, -171010
81092, -1510, -16, 345, 82460, 114590, -254520
81112, -808, -957, 106, -111930, -42280, -223580
81132, -709, -750, 805, -267540, -293860, 18270
81152, -337, -1203, 1054, -284690, -269080, 217070
81172, -273, -884, 569, -137760, -314930, 152180
81192, -458, -763, 500, 64400, -137970, 114450
81212, -474, -677, 257, 142660, 45080, 39130
81232, -423, -446, 378, 177870, 204330, -13510
81252, -1021, -77, 974, 266420, 324170, 22680
81272, -880, -42, 360, 265650, 301000, 98770
81292, -777, -408, 461, 101150, 90930, 57120
81312, -812, -429, 481, 4620, 1260, 35560
81332, -861, -311, 490, -33950, -55090, 41510
81352, -821, -318, 560, -24780, -70420, 25970
81372, -766, -493, 615, -29960, -59850, -5950
81392, -663, -561, 586, -44170, -47810, -28910
81412, -606, -498, 541, -32130, -27790, -21630
81432, -642, -432, 585, -10290, -21140, 7140
81452, -627, -444, 594, -3640, -24010, 9590
81472, -624, -478, 626, -14770, -26600, -1190
81492, -616, -413, 609, -7140, -18900, 15820
81512, -585, -398, 560, 17430, -10710, 42280
81532, -623, -346, 538, 36120, -3710, 54390
81552, -780, -447, 682, 25060, -13020, 26740
81572, -702, -484, 668, -6440, -22400, -13720
81592, -594, -399, 622, -21420, -32830, -15540
81612, -656, -388, 620, -1470, -27020, 20440
81632, -739, -399, 626, 9100, -9310, 27930
81652, -679, -420, 615, -11830, -350, -5880
81672, -628, -415, 595, -14490, -12390, -1610
81692, -607, -411, 584, -8260, -13370, 5530
81712, -686, -402, 596, -5600, -6580, 280
81732, -734, -441, 646, -10780, -9030, -10010
81752, -661, -435, 637, -7140, -18760, -1680
81772, -656, -415, 644, 9520, -20230, 14420
81792, -624, -427, 655, 11340, -16660, 16520
81812, -650, -468, 689, 3640, -14280, 10780
81832, -700, -457, 706, 4830, -1260, 13370
81852, -638, -383, 634, 16380, 12320, 31010
81872, -694, -235, 527, 33810, 21000, 44450
81892, -576, -442, 658, -5950, -31920, 15400
81912, -587, -451, 734, -80010, -165760, -22190
81932, -668, -429, 728, -42140, -65800, -8120
81952, -445, -416, 704, 6580, 560, 19250
81972, -780, -257, 594, 43890, 85610, 26320
81992, -864, -329, 640, 56280, 121590, 6580
82012, -747, -421, 742, 24220, 39200, -3500
82032, -683, -539, 871, -11900, -47180, -3780
82052, -536, -364, 737, -7140, -58800, 23450
82072, -1187, -235, 718, 45290, 1470, 54040
82092, 23, -330, 669, -77280, -205520, -4340
82112, -618, -376, 826, -112630, -268030, -17360
82132, -569, -462, 851, -55650, -71750, -32550
82152, -574, -497, 863, -24430, -18830, -22400
82172, -206, -293, 679, 31990, 13860, 8470
82192, -497, -191, 655, 111720, 71750, 57610
82212, -785, -250, 591, 124950, 233520, 43890
82232, -931, -401, 682, 51310, 228970, -26040
82252, -838, -424, 723, -210, 94850, -48930
82272, -561, -311, 700, -19040, -57750, -12180
82292, -504, -336, 740, -18060, -122780, 17990
82312, -651, -319, 712, -4200, -64890, 21630
82332, -761, -275, 695, 3920, 17360, 4830
82352, -733, -296, 706, -2170, 40670, -5040
82372, -607, -364, 714, -12670, 15960, -8470
82392, -637, -373, 704, -13720, -14490, 280
82412, -695, -347, 715, -4130, -10920, 6090
82432, -685, -285, 708, -2800, -11550, 10150
82452, -668, -270, 705, 4200, -30310, 18270
82472, -616, -272, 709, 9240, -39200, 13650
82492, -535, -294, 724, 4060, -49280, 9380
82512, -673, -472, 822, 490, -61600, 13370
82532, -596, -427, 813, -7630, -66010, 19180
82552, -475, -201, 821, 27790, -139860, 56280
82572, -327, -165, 638, 53410, -140980, 54250
82592, -409, -53, 951, 67760, -88620, 910
82612, -406, -265, 803, 52220, -64960, -8890
82632, -582, 156, 732, -7210, -88480, 7350
82652, -384, -222, 1047, -124390, -206500, -24640
82672, -258, -175, 916, -62930, -236180, 15610
82692, -554, -254, 1223, 8190, -208110, 83160
82712, -208, -210, 1003, 11970, -147770, 49210
82732, -245, -313, 1036, 32970, -111790, 42910
82752, -348, -308, 1196, 75600, -71750, 61950
82772, -213, -251, 1049, 55510, -81410, 37940
82792, -146, -90, 997, 19390, -87150, -13160
82812, -20, -43, 934, 33110, -65100, -46550
82832, -9, -241, 957, 77980, -44940, -23940
82852, 30, -210, 1126, 130480, -14280, 9660
82872, -80, 175, 1055, 157640, 2940, 21420
82892, 101, 28, 948, 81410, -27160, 25900
82912, 74, 14, 985, 34650, -92960, 2170
82932, 85, 63, 940, 48090, -48090, 9380
82952, 116, 8, 891, 75110, -18130, 8120
82972, 78, 62, 943, 74410, 1330, 5810
82992, 5, 149, 994, 43470, -3430, -4690
83012, 65, 111, 986, 5460, -25060, -11130
83032, 114, 65, 997, 8470, -51800, -16870
83052, 107, 57, 1000, 24710, -39410, -22680
83072, 164, 55, 984, 39760, -18970, -20020
83092, 139, 55, 1015, 28700, -21630, -24010
83112, 99, 14, 1023, -630, -27930, -28490
83132, 121, 44, 973, -8120, -26740, -27230
83152, 114, 52, 964, -9030, -34510, -25550
83172, 95, 92, 975, -24850, -43750, -22820
83192, 142, 131, 962, -14700, -49490, -20090
83212, 197, 53, 954, -1610, -39900, -20160
83232, 186, 82, 1005, 4480, -23380, -18480
83252, 178, 96, 980, -2380, -19810, -14140
83272, 155, 147, 965, -13930, -26740, -12250
83292, 153, 161, 1039, -10290, -27020, -12180
83312, 196, 159, 1044, -8540, -20650, -13650
83332, 401, 376, 582, -8750, -12460, -16940
83352, 142, -55, 869, -16520, -7210, -18200
83372, 198, 23, 1057, -106330, 21210, -24010
83392, 271, 53, 1165, -51310, -29050, -16310
83412, 205, 183, 981, 19670, -30660, -11060
83432, 201, 131, 1045, 76230, 24710, -12250
83452, 148, 72, 1148, 5040, 2100, -11830
83472, 170, 75, 1057, -2310, 560, -7980
83492, 180, 118, 981, 1470, 3150, -7630
83512, 439, -658, 1858, -12110, 3990, -14210
83532, 102, 74, 1076, -106260, 33460, -19180
83552, 346, 15, 1113, 3920, -43750, -13650
83572, 150, 138, 1002, 43400, 8120, -6790
83592, 216, 137, 1010, 54180, 40740, 1890
83612, 166, 96, 1103, 13370, 13230, -1610
83632, 125, 135, 1032, 700, 14280, -4480
83652, 136, 106, 990, 2240, 17990, -4410
83672, 137, 86, 980, -7140, 16030, -5250
83692, 135, 115, 947, -8260, 18200, -2940
83712, 112, 122, 979, -4620, 11690, 490
83732, 91, 107, 1009, -6370, 3570, 2450
83752, 117, 174, 1003, -3990, 3990, 2380
83772, 134, 125, 992, -5250, 6650, -1750
83792, 133, 91, 1011, -11200, 4410, -7210
83812, 151, 85, 979, -10850, 7770, -5530
83832, 147, 91, 953, -10010, 11130, -3710
83852, 122, 80, 996, -5460, 11760, -1470
83872, 105, 81, 1016, -10080, 9030, -2450
83892, 77, 100, 1018, -8260, 9100, 420
83912, 68, 95, 1008, -6440, 5880, 1330
83932, 91, 78, 968, -3430, 3780, 700
83952, 94, 72, 975, -4760, -1260, -1190
83972, 108, 61, 982, -1890, -3150, -910
83992, 87, 86, 1017, 1330, -3500, 0
84012, 109, 113, 1037, 2450, -1120, -1190
84032, 107, 104, 1062, 1470, 70, -3780
84052, 92, 118, 1059, -1330, -1120, -3640
84072, 92, 109, 1085, -6160, -3920, -5670
84092, 101, 87, 1097, -10570, -7980, -9520
84112, 140, 80, 1037, -14140, -1890, -11690
84132, 138, 44, 981, -12880, 3920, -12110
