T [ms],AccX [mg],AccY [mg],AccZ [mg],GyroX [mdps],GyroY [mdps],GyroZ [mdps]
329484, 115, -259, 952, -15820, -3010, -22470
329504, 92, -227, 989, -9030, -4130, -22050
329524, 64, -218, 1077, -8260, 140, -21140
329544, 108, -246, 1045, -3990, 5950, -22750
329564, 137, -248, 979, -7070, 6300, -24850
329584, 160, -251, 955, -14700, -350, -25410
329604, 164, -241, 941, -18270, -5600, -24850
329624, 203, -245, 954, -22540, -3570, -25270
329644, 217, -268, 991, -22470, 770, -24360
329664, 218, -270, 947, -32480, 630, -24150
329684, 238, -263, 841, -39830, -5670, -22470
329704, 199, -261, 806, -39760, -9170, -16450
329724, 138, -246, 945, -25130, -8750, -7700
329744, 160, -262, 1007, -13020, 2030, -6020
329764, 155, -277, 980, -10150, 5880, -6160
329784, 131, -279, 901, -21070, -280, -5250
329804, 143, -296, 850, -36330, -7000, -4760
329824, 177, -311, 737, -61460, -12810, -11410
329844, 202, -335, 725, -75740, -14770, -19740
329864, 192, -320, 789, -51170, -8610, -16310
329884, 146, -348, 864, -39550, -1540, -11480
329904, 107, -389, 960, -40250, -17990, -15890
329924, 130, -388, 852, -54320, -22890, -22050
329944, 152, -405, 787, -60200, -6300, -20860
329964, 181, -386, 862, -38360, 16800, -10080
329984, 160, -411, 946, -10920, 21070, -1540
330004, 205, -459, 1020, -5950, 9240, -5320
330024, 123, -479, 1016, -9660, 2030, -11340
330044, 89, -411, 1040, -13370, 17220, -4480
330064, 197, -746, 410, -35350, 20650, -2100
330084, 110, -585, 1277, -169190, -27370, -39200
330104, 357, -687, 973, -191660, -63770, -106820
330124, 308, -596, 870, -31710, -42700, -104090
330144, 256, -641, 817, -32130, 7630, -28140
330164, 282, -562, 780, -6300, 20090, -5740
330184, 327, -601, 869, 4060, 12810, -18830
330204, 429, -618, 821, 1190, 6580, -21210
330224, 353, -624, 727, -9870, 10150, -10990
330244, 330, -561, 714, -560, 4200, -3920
330264, 263, -633, 808, 5250, 3640, -3710
330284, 220, -737, 974, 14420, 10430, 3080
330304, 196, -760, 1154, 10640, 21980, 4480
330324, 146, -756, 840, -36750, 14980, -2240
330344, 110, -778, 875, -50960, 21140, -16030
330364, 159, -760, 809, -19110, 32410, -13230
330384, 256, -769, 852, -11480, 35980, -16450
330404, 217, -775, 852, -5390, 51940, 5670
330424, 58, -687, 874, -3920, 66850, 23800
330444, 44, -651, 854, -27930, 62720, 19600
330464, 47, -702, 822, -91630, 44590, 3220
330484, 129, -721, 952, -149800, 35770, 6510
330504, 50, -799, 896, -212030, 44030, 22120
330524, 38, -723, 705, -274330, 69790, 89600
330544, -87, -370, 543, -366380, 81900, 190470
330564, -494, -648, 317, -456050, 29120, 345240
330584, -840, -761, 34, -499100, -60130, 521220
330604, -1527, -1905, -811, -448770, -169260, 562310
330624, -583, -1045, -554, -349370, -45150, 277760
330644, -366, -615, -55, -49980, 160440, -160860
330664, -160, -483, -182, 147280, 309610, -250250
330684, -38, -539, -133, 64890, 514290, -275730
330704, -134, -909, -337, 10080, 513240, -300440
330724, -268, -1262, -549, -11410, 582400, -209510
330744, -401, -963, -533, 29260, 820750, 2800
330764, -654, -727, -561, 218820, 923090, 311920
330784, -775, -544, -627, 312830, 1033270, 542430
330804, -807, -398, -643, 309400, 1196300, 536970
330824, -832, -366, -699, 357280, 1315160, 433300
330844, -895, -358, -739, 485940, 1346520, 353850
330864, -1167, -716, -780, 688730, 1327970, 313250
330884, -1432, -1078, -767, 866460, 1323700, 295330
330904, -1320, -887, -738, 945000, 1363320, 223160
330924, -1071, -521, -645, 870170, 1491910, 72940
330944, -939, -307, -560, 748860, 1589350, 31500
330964, -967, -405, -519, 663040, 1588720, 150290
330984, -1193, -895, -517, 568120, 1536430, 297710
331004, -1496, -1652, -571, 488600, 1445710, 356720
331024, -1141, -1442, -313, 515900, 1282820, 258230
331044, -608, -805, -71, 623070, 883750, -131600
331064, -419, -522, -11, 345380, 838110, -82180
331084, -400, -597, -14, 180670, 689850, 28210
331104, -625, -1041, -60, 175840, 427070, 127540
331124, -790, -1265, -85, 277900, 101570, 146300
331144, -649, -1043, 26, 294420, -126560, -31990
331164, -425, -801, 35, 65520, -170170, -258720
331184, -442, -784, -71, -170730, -264320, -269360
331204, -624, -879, -182, -193480, -535080, -108640
331224, -698, -798, -163, -121310, -828870, 6370
331244, -590, -531, -148, -225820, -926450, -59640
331264, -633, -538, -317, -550270, -822010, -194390
331284, -867, -789, -481, -751380, -791210, -244020
331304, -908, -756, -541, -630210, -973350, -238140
331324, -753, -511, -461, -413630, -1199800, -271040
331344, -636, -392, -488, -394100, -1271830, -301490
331364, -606, -333, -447, -475580, -1252930, -239960
331384, -515, -237, -431, -488740, -1208830, -148540
331404, -373, -157, -385, -466060, -1163470, -101990
331424, -248, -133, -340, -476420, -1027810, -108920
331444, -189, -192, -295, -518280, -818790, -146510
331464, -236, -345, -293, -540820, -590730, -196140
331484, -233, -417, -286, -471520, -427070, -263830
331504, -151, -379, -261, -287840, -347830, -344120
331524, -89, -430, -254, -83580, -289240, -392070
331544, -75, -551, -215, 67340, -204400, -373730
331564, -71, -712, -164, 173110, -100170, -283780
331584, -195, -839, -152, 211470, 17850, -137480
331604, -330, -819, -245, 146790, 177240, 26810
331624, -402, -777, -284, 56420, 353220, 104090
331644, -330, -617, -275, 91630, 459830, 79660
331664, -279, -501, -223, 273420, 450380, 31850
331684, -321, -635, -171, 457520, 418670, 30660
331704, -478, -907, -97, 522690, 442820, 70490
331724, -626, -1080, -235, 423570, 551250, 126210
331744, -317, -358, -145, 183680, 705180, 159950
331764, -320, -164, -59, 59010, 756560, 157780
331784, -258, -298, -111, 78330, 694540, 147700
331804, -860, -1326, -623, -36400, 709310, 69090
331824, -1509, -1998, -596, -194530, 846230, -53690
331844, -1536, -1998, 361, 319410, 613970, -198240
331864, -1106, -1998, -478, 680470, 103390, -131250
331884, -753, -1182, -316, -45360, 260750, 80080
331904, -539, -866, -301, -227850, 194110, 22750
331924, -662, -1040, -100, 157430, -185640, -133070
331944, -942, -1998, -42, 159110, -399840, -374710
331964, -1586, -1998, -780, -394520, -202790, -340270
331984, -1077, -1571, -357, -298760, -528920, -154490
332004, -681, -786, -114, -24710, -871920, -254590
332024, -366, -544, -40, -312270, -768110, -445550
332044, -714, -1194, -434, -747810, -592970, -389270
332064, -1289, -1972, -683, -817810, -685790, -170170
332084, -1117, -1493, -432, -494550, -1065190, -7560
332104, -730, -896, -387, -503440, -1129870, -93590
332124, -964, -1022, -621, -778400, -1024030, -22960
332144, -1231, -1264, -721, -728700, -1137640, 160930
332164, -1091, -1021, -603, -378070, -1375850, 146020
332184, -823, -756, -477, -266700, -1390550, -91980
332204, -757, -752, -527, -446110, -1202880, -288400
332224, -816, -775, -591, -567000, -1076880, -295960
332244, -711, -591, -516, -436730, -1119930, -283990
332264, -466, -290, -394, -317660, -1117830, -356370
332284, -339, -329, -304, -352100, -990850, -428890
332304, -279, -473, -330, -461720, -796740, -439460
332324, -295, -615, -342, -499940, -667590, -357140
332344, -362, -792, -360, -419860, -610750, -223650
332364, -316, -782, -291, -265930, -592340, -110530
332384, -244, -699, -222, -113750, -555310, -47320
332404, -163, -593, -203, -84280, -417060, -35560
332424, -172, -594, -234, -155120, -201180, -43610
332444, -183, -591, -269, -197960, 3080, -37870
332464, -156, -523, -278, -133700, 138320, -34720
332484, -132, -437, -273, 30590, 199570, -13650
332504, -131, -367, -268, 220850, 234920, 35980
332524, -176, -384, -280, 364490, 293650, 93310
332544, -297, -538, -303, 441770, 390180, 152040
332564, -467, -817, -355, 469630, 510230, 206920
332584, -718, -1236, -365, 476140, 624050, 247800
332604, -750, -1381, -365, 452970, 728000, 283570
332624, -756, -1169, -385, 386330, 809270, 304570
332644, -583, -781, -326, 288540, 891100, 331450
332664, -833, -1079, -471, 227850, 933170, 352030
332684, -1182, -1760, -467, 173810, 975100, 363790
332704, -1522, -1998, -646, 200970, 1000020, 293090
332724, -1665, -1998, -601, 252070, 982100, 164640
332744, -1104, -1998, -444, 261310, 976500, -36260
332764, -872, -1508, -383, 205380, 960610, -189140
332784, -794, -1310, -363, 235130, 821100, -76160
332804, -1111, -1847, -472, 280140, 722400, -28910
332824, -1202, -1998, -413, 385980, 550550, -197470
332844, -1040, -1998, -412, 445340, 519050, -225820
332864, -830, -1829, -379, 305340, 482860, -93870
332884, -838, -1700, -386, 334530, 339850, 52220
332904, -882, -1810, -300, 439250, 200410, 43680
332924, -878, -1934, -281, 376950, 193130, -70210
332944, -694, -1683, -254, 225330, 212660, -142240
332964, -624, -1446, -246, 176610, 108430, -55930
332984, -577, -1226, -186, 229530, -64330, 57400
333004, -540, -1092, -161, 217420, -141470, 49210
333024, -494, -1002, -149, 113890, -118370, -52780
333044, -460, -982, -151, 19460, -98560, -148820
333064, -444, -980, -178, -16030, -141610, -169260
333084, -411, -885, -145, 15260, -247590, -119140
333104, -358, -735, -114, 30310, -337820, -67900
333124, -289, -574, -102, -19810, -361760, -53760
333144, -246, -462, -92, -103250, -335650, -68110
333164, -209, -384, -102, -176330, -301630, -85820
333184, -195, -348, -108, -210420, -288610, -94570
333204, -180, -320, -112, -200200, -300650, -95550
333224, -173, -313, -108, -168350, -320180, -93030
333244, -164, -324, -111, -132510, -335160, -88200
333264, -172, -373, -118, -98490, -349440, -74480
333284, -198, -460, -112, -69720, -360500, -46620
333304, -241, -573, -113, -53340, -358330, -9870
333324, -297, -698, -119, -60760, -336280, 24080
333344, -344, -777, -133, -90090, -295400, 43050
333364, -336, -760, -151, -122010, -251020, 40670
333384, -292, -664, -150, -132230, -220290, 19040
333404, -218, -532, -132, -114240, -202860, -11830
333424, -186, -480, -125, -83860, -191310, -34020
333444, -185, -497, -126, -59500, -178430, -33180
333464, -232, -606, -136, -34720, -171290, -11200
333484, -329, -824, -148, -3430, -173180, 24640
333504, -551, -1304, -188, 23310, -174860, 58450
333524, -736, -1737, -246, 20090, -156170, 62370
333544, -764, -1808, -301, -21280, -127260, 28910
333564, -585, -1384, -259, -66430, -129010, 420
333584, -417, -979, -203, -37590, -193690, 2940
333604, -376, -832, -171, 23380, -273490, 26670
333624, -372, -767, -129, 79100, -332010, 35490
333644, -391, -881, -138, 110740, -373170, 23800
333664, -596, -1372, -241, 53480, -326690, -12810
333684, -947, -1998, -418, -49560, -251860, -50960
333704, -952, -1998, -459, -104440, -212520, -83370
333724, -626, -1462, -284, 144760, -470750, -128240
333744, -559, -1250, -273, 82040, -470890, -120330
333764, -803, -1697, -334, -18200, -414470, -130340
333784, -1051, -1998, -504, -102340, -350910, -191520
333804, -1037, -1998, -525, -77140, -364980, -255640
333824, -868, -1902, -365, 53760, -484610, -224980
333844, -846, -1878, -353, -13230, -435820, -255220
333864, -912, -1998, -375, -123480, -346920, -280280
333884, -855, -1814, -368, -160020, -312060, -289170
333904, -707, -1434, -274, -111790, -340060, -298060
333924, -598, -1271, -229, -95830, -336070, -338870
333944, -585, -1345, -243, -155330, -273910, -369740
333964, -585, -1451, -255, -194880, -225260, -345660
333984, -550, -1340, -239, -210840, -196560, -277130
334004, -506, -1188, -218, -212240, -167650, -221340
334024, -441, -1054, -206, -225680, -112140, -208390
334044, -371, -990, -213, -236250, -41790, -228060
334064, -343, -964, -207, -229460, 19810, -224980
334084, -349, -947, -209, -199220, 66780, -182280
334104, -307, -872, -196, -140770, 86170, -123970
334124, -293, -778, -187, -88060, 109970, -74970
334144, -259, -680, -193, -62090, 160440, -34160
334164, -226, -555, -176, -33880, 219240, -23030
334184, -141, -411, -166, 17990, 267400, -19740
334204, -108, -325, -172, 79380, 301770, -9030
334224, -137, -292, -171, 118650, 364700, 26250
334244, -201, -357, -180, 143430, 439810, 69720
334264, -168, -258, -154, 190260, 480340, 102620
334284, -135, -184, -108, 238000, 503160, 127120
334304, -143, -210, -108, 234780, 535710, 162960
334324, -261, -396, -151, 173320, 582190, 219240
334344, -448, -763, -231, 44520, 664230, 291690
334364, -901, -1628, -395, -69650, 722540, 350910
334384, -1434, -1998, -525, -116270, 716590, 369390
334404, -996, -1998, -277, -40600, 631190, 259980
334424, -601, -1360, -151, 96320, 517720, 18900
334444, -539, -1164, -137, 14280, 547260, -127750
334464, -739, -1484, -245, -141540, 606550, -126910
334484, -1008, -1998, -332, -183680, 590380, -109900
334504, -1200, -1998, -309, -91210, 495320, -145390
334524, -1176, -1998, -367, 29400, 382900, -214830
334544, -1001, -1998, -336, -32830, 392700, -298200
334564, -949, -1998, -319, -76020, 386400, -349790
334584, -1084, -1998, -364, -8470, 298760, -347410
334604, -1093, -1998, -353, 13510, 244440, -332780
334624, -921, -1998, -305, 16520, 188510, -397460
334644, -766, -1765, -264, 700, 172410, -422520
334664, -654, -1547, -227, -3080, 133770, -386330
334684, -597, -1410, -208, 2730, 78890, -311780
334704, -574, -1314, -196, -5530, 39900, -252910
334724, -518, -1165, -187, -29330, 30870, -237160
334744, -425, -964, -162, -46340, 33740, -249620
334764, -328, -776, -132, -42070, 25830, -255920
334784, -227, -607, -104, -26810, 11130, -242690
334804, -154, -462, -73, -26600, 12180, -204610
334824, -96, -373, -78, -35980, 17780, -146580
334844, -92, -328, -68, -38920, 26250, -77420
334864, -122, -326, -77, -43680, 53410, -30940
334884, -76, -285, -72, -37240, 73290, -2940
334904, -134, -382, -92, -31220, 98700, 13370
334924, -139, -416, -98, -2590, 120610, 53130
334944, -148, -456, -89, 77210, 91910, 99960
334964, -167, -521, -55, 159110, 45990, 162330
334984, -244, -694, -39, 185430, 25550, 226520
335004, -460, -1102, -93, 95620, 79100, 286510
335024, -837, -1754, -287, -78890, 163170, 344400
335044, -985, -1998, -371, -200340, 181300, 366590
335064, -651, -1527, -198, -121590, 65870, 278390
335084, -506, -1304, -119, 13230, -76160, 189140
335104, -620, -1588, -148, -24570, -123270, 211330
335124, -1200, -1998, -391, -144410, -149030, 322210
335144, -1405, -1998, -537, -230230, -220150, 444010
335164, -1041, -1998, -335, -174090, -342230, 335230
335184, -1071, -1998, -418, -100800, -480200, 212520
335204, -1390, -1998, -563, -145740, -585830, 314720
335224, -1375, -1998, -553, -101430, -714490, 419020
335244, -1352, -1998, -624, -5390, -798910, 278390
335264, -1388, -1998, -662, -23800, -810040, 109200
335284, -1296, -1998, -602, 37170, -908810, 58870
335304, -1102, -1944, -552, 88340, -965720, -58170
335324, -988, -1614, -511, 14840, -925680, -208040
335344, -840, -1324, -434, -48650, -897120, -311010
335364, -709, -1130, -364, -97160, -865340, -404390
335384, -566, -927, -335, -184870, -791840, -468440
335404, -387, -641, -277, -268100, -730170, -459620
335424, -271, -484, -219, -318220, -689640, -398370
335444, -210, -440, -248, -365680, -628110, -316890
335464, -159, -413, -240, -427700, -515270, -243460
335484, -133, -384, -230, -442050, -400050, -184870
335504, -104, -322, -188, -393260, -316260, -131670
335524, -62, -285, -174, -213010, -167580, -74900
335544, -32, -254, -182, -136220, -70140, -74480
335564, -5, -213, -165, -56070, 34650, -67060
335584, 36, -158, -197, 28000, 132300, -41230
335604, 63, -33, -163, 108570, 245280, 10780
335624, 11, -33, -177, 151970, 367500, 104650
335644, -71, -66, -204, 159460, 481810, 200900
335664, -63, 26, -172, 228410, 534940, 275100
335684, -86, 36, -156, 294350, 559020, 364070
335704, -108, 12, -167, 304990, 584220, 469000
335724, -199, -173, -173, 290850, 608930, 594160
335744, -587, -1156, -284, 241500, 646450, 737870
335764, -1998, -1998, -1348, 38780, 749840, 915810
335784, -1331, -1998, -447, -106120, 723660, 765450
335804, -254, -758, 4, 185220, 588770, -52150
335824, -240, -612, -139, 171080, 564060, -101430
335844, -553, -1060, -237, -185570, 760550, 69930
335864, -1301, -1998, -687, -457800, 898450, 118790
335884, -1650, -1998, -748, -320460, 769440, 91840
335904, -1179, -1998, -116, 123130, 418390, 48650
335924, -960, -1998, -368, 135730, 372470, -136150
335944, -730, -1741, -359, -294840, 695940, -357210
335964, -632, -1617, -281, -134260, 563850, -327880
335984, -858, -1838, -223, 131600, 315280, -139580
336004, -1028, -1997, -305, 178640, 225330, -27720
336024, -840, -1755, -332, -31990, 390320, -202510
336044, -553, -1346, -236, -49840, 439950, -396270
336064, -365, -1071, -117, 154840, 253190, -343630
336084, -395, -945, -93, 224350, 127750, -183750
336104, -456, -899, -147, 119490, 126910, -51800
336124, -402, -794, -154, -19530, 200690, -65310
336144, -340, -687, -133, -21210, 212100, -156310
336164, -300, -658, -119, 81690, 140000, -206290
336184, -241, -667, -85, 176540, 52500, -205310
336204, -240, -721, -31, 205590, -70, -170030
336224, -347, -861, -95, 137690, 2520, -94080
336244, -407, -921, -144, -7910, 48720, -12250
336264, -344, -792, -123, -91000, 71890, 11340
336284, -277, -655, -93, -42350, 18480, -3150
336304, -198, -525, -60, 28420, -51310, -14980
336324, -151, -450, -37, 53060, -92470, -12950
336344, -148, -440, -32, 26110, -101430, 16100
336364, -214, -542, -63, -41510, -88760, 73990
336384, -328, -744, -106, -111160, -81760, 149800
336404, -508, -1118, -142, -134750, -109760, 270270
336424, -820, -1788, -212, -73150, -228480, 271110
336444, -889, -1998, -257, -93100, -265300, 222320
336464, -800, -1859, -297, -173040, -287630, 187740
336484, -787, -1693, -314, -160300, -397320, 268940
336504, -874, -1847, -326, -55860, -539350, 327250
336524, -1100, -1998, -383, -17360, -600250, 294280
336544, -1220, -1998, -543, -86870, -576730, 178710
336564, -1159, -1998, -561, -69930, -636230, 94710
336584, -1061, -1998, -484, 71890, -789320, 72800
336604, -1073, -1998, -465, 96740, -832510, 16870
336624, -1206, -1998, -573, -12880, -762440, -78540
336644, -1107, -1998, -562, -36890, -734930, -215530
336664, -867, -1692, -429, 13370, -753690, -348950
336684, -753, -1541, -378, -34440, -719880, -399420
336704, -767, -1517, -365, -150010, -642810, -362670
336724, -719, -1385, -329, -220640, -579110, -328370
336744, -560, -1098, -250, -254030, -524090, -343000
336764, -374, -819, -233, -292040, -461790, -358540
336784, -280, -667, -200, -333060, -394520, -333410
336804, -233, -622, -205, -346710, -331380, -266840
336824, -233, -628, -203, -329770, -286230, -185010
336844, -229, -637, -202, -283150, -250040, -108500
336864, -222, -629, -194, -225400, -213570, -50120
336884, -202, -585, -176, -169890, -165410, -15750
336904, -183, -557, -176, -130620, -97230, -4200
336924, -175, -527, -180, -108500, -11620, -840
336944, -164, -487, -183, -75250, 69020, 4270
336964, -139, -434, -182, -17290, 129990, 14280
336984, -118, -367, -175, 60970, 173880, 32690
337004, -104, -318, -172, 141260, 213290, 64260
337024, -111, -309, -176, 207270, 255990, 109340
337044, -129, -307, -160, 254940, 302540, 166740
337064, -209, -443, -175, 288330, 343910, 237020
337084, -383, -795, -210, 291200, 389620, 315280
337104, -820, -1645, -275, 294420, 424200, 393190
337124, -1291, -1998, -431, 266490, 465080, 449610
337144, -866, -1876, -334, 166180, 514570, 426440
337164, -534, -1198, -205, 74690, 547190, 291760
337184, -552, -1134, -199, 56350, 507500, 273210
337204, -923, -1846, -333, 4200, 477330, 359940
337224, -1372, -1998, -508, -105910, 504910, 390110
337244, -1052, -1998, -353, -182000, 532560, 296170
337264, -810, -1941, -288, -143150, 492590, 115710
337284, -832, -1810, -322, -143920, 441420, 82110
337304, -981, -1998, -374, -301910, 436170, 110530
337324, -883, -1995, -277, -198660, 353360, -15610
337344, -688, -1711, -197, -131530, 294630, -119770
337364, -626, -1555, -226, -224210, 318430, -113680
337384, -635, -1448, -257, -282030, 305900, -50960
337404, -605, -1316, -244, -240100, 243320, -29750
337424, -486, -1090, -163, -126140, 157780, -65940
337444, -414, -984, -151, -87640, 138810, -123410
337464, -346, -881, -146, -124250, 175140, -158620
337484, -285, -767, -143, -143290, 192150, -148890
337504, -259, -678, -140, -129150, 182420, -104650
337524, -225, -584, -129, -75390, 144200, -47740
337544, -203, -502, -110, -6090, 99400, -2800
337564, -181, -447, -100, 39410, 82810, 17780
337584, -171, -413, -96, 59710, 89950, 18200
337604, -161, -398, -95, 72030, 103880, 14980
337624, -161, -404, -96, 90580, 106610, 18690
337644, -174, -459, -100, 113190, 97160, 37450
337664, -204, -563, -110, 150710, 67060, 78960
337684, -275, -744, -114, 204190, 16520, 146090
337704, -423, -1067, -119, 247800, -34930, 224490
337724, -664, -1512, -163, 226380, -42770, 276010
337744, -804, -1820, -269, 114100, 6230, 268450
337764, -686, -1662, -277, 25830, 21070, 215600
337784, -592, -1483, -210, 84280, -81060, 200970
337804, -662, -1596, -192, 177660, -216510, 255290
337824, -893, -1989, -278, 157640, -267120, 308490
337844, -1080, -1998, -404, 59990, -253120, 297920
337864, -972, -1998, -380, 31010, -277830, 212170
337884, -824, -1939, -307, 120330, -401380, 149660
337904, -838, -1828, -320, 153370, -499800, 165550
337924, -929, -1886, -379, 90650, -520450, 185710
337944, -904, -1830, -391, 49840, -523040, 127820
337964, -783, -1651, -344, 85680, -552300, -10080
337984, -675, -1458, -310, 110180, -585270, -123060
338004, -635, -1280, -302, 69930, -598150, -141330
338024, -593, -1127, -290, 18550, -602980, -110180
338044, -516, -957, -255, -28490, -578760, -123900
338064, -433, -835, -221, -64610, -528850, -196980
338084, -359, -757, -209, -93730, -477120, -266350
338104, -301, -702, -201, -119350, -429450, -292250
338124, -260, -648, -182, -128240, -394450, -270830
338144, -217, -588, -169, -117950, -374710, -211470
338164, -196, -548, -159, -104720, -354620, -141890
338184, -179, -514, -154, -108920, -307090, -82110
338204, -154, -477, -152, -108010, -178780, -10010
338224, -145, -471, -156, -87430, -114240, 12600
338244, -166, -504, -167, -46410, -58660, 37170
338264, -153, -515, -160, 31640, -33250, 64190
338284, -186, -604, -157, 114100, -19670, 108570
338304, -260, -795, -156, 174860, -1820, 173880
338324, -438, -1182, -155, 197470, 28980, 246890
338344, -716, -1654, -244, 134190, 105980, 300720
338364, -745, -1708, -309, 23870, 200340, 295190
338384, -557, -1343, -253, 29330, 206710, 253470
338404, -431, -1085, -179, 115080, 153930, 261100
338424, -458, -1075, -156, 140490, 140280, 305410
338444, -653, -1456, -234, 60480, 196910, 353430
338464, -841, -1878, -329, -34090, 260820, 359380
338484, -839, -1982, -322, -46900, 274120, 312550
338504, -683, -1688, -230, 9520, 227570, 277550
338524, -684, -1595, -251, -26320, 232610, 290710
338544, -769, -1691, -309, -141680, 287280, 306460
338564, -755, -1693, -306, -182770, 298270, 288610
338584, -684, -1592, -235, -117180, 252770, 235970
338604, -625, -1485, -218, -63840, 218610, 189490
338624, -601, -1398, -255, -133280, 265370, 162960
338644, -582, -1316, -272, -215180, 317450, 150780
338664, -508, -1148, -227, -191030, 298970, 144200
338684, -432, -993, -189, -97930, 245350, 126980
338704, -387, -879, -172, -44240, 227500, 100170
338724, -359, -815, -177, -55300, 264880, 64890
338744, -334, -759, -181, -75600, 313740, 28070
338764, -292, -671, -173, -53970, 330260, 8820
338784, -252, -580, -154, 8820, 311780, 14840
338804, -220, -498, -132, 82320, 281820, 37170
338824, -208, -453, -125, 140770, 262920, 62370
338844, -209, -433, -125, 172130, 261870, 81480
338864, -212, -441, -121, 185010, 272650, 93380
338884, -233, -507, -125, 201110, 275590, 104370
338904, -278, -640, -127, 231770, 258160, 126420
338924, -358, -867, -122, 269570, 223300, 165830
338944, -515, -1196, -129, 292740, 184870, 222600
338964, -685, -1513, -176, 260890, 171220, 279720
338984, -695, -1572, -237, 150640, 201320, 295750
339004, -591, -1376, -194, 44030, 214900, 270340
339024, -552, -1314, -144, 63350, 128310, 267400
339044, -670, -1518, -156, 118090, 15400, 301280
339064, -856, -1895, -241, 92120, -43400, 343700
339084, -938, -1998, -315, -7700, -44870, 337260
339104, -783, -1805, -252, -25760, -184380, 241080
339124, -655, -1475, -200, 14420, -296310, 243880
339144, -622, -1322, -202, -19460, -345940, 257810
339164, -650, -1329, -239, -71750, -359660, 227570
339184, -675, -1361, -259, -60200, -404180, 164850
339204, -642, -1324, -250, -9520, -466830, 79310
339224, -566, -1193, -222, 1470, -506240, 11060
339244, -525, -1064, -218, -34020, -525000, 560
339264, -501, -946, -222, -80500, -528080, 6090
339284, -455, -811, -202, -91910, -535850, -14700
339304, -675, -956, -263, -84490, -535080, -73710
339324, -626, -818, -270, 13930, -593600, -210560
339344, -461, -675, -165, 107310, -692510, -396340
339364, -162, -463, -104, -45500, -623490, -494340
339384, -13, -235, -143, -323470, -493710, -401030
339404, -243, -420, -228, -500570, -450520, -135170
339424, -276, -388, -232, -421540, -540540, 113540
339444, -193, -482, -234, -140560, -751730, 254030
339464, -111, -584, -239, 65030, -817110, 332500
339484, -293, -1128, -269, 106680, -656390, 382480
339504, -740, -1928, -564, 52150, -376250, 428680
339524, -878, -1998, -927, 88690, -107240, 447510
339544, -16, -1402, -347, 305550, 69720, 297570
339564, -1311, -1611, -1015, 674240, 189420, 571480
339584, -885, -605, -643, 398020, 779170, 1020670
339604, -1297, -614, -700, 495950, 1135120, 904820
339624, -1315, -816, -364, 309260, 1502620, 726110
339644, -731, -370, 229, 209790, 1479940, 475930
339664, -588, -518, 408, 284130, 1107890, 214480
339684, -574, -759, 46, 234150, 594300, 140770
339704, -698, -1342, -217, 299530, -91070, 169610
339724, -620, -1542, -332, 396760, -516110, 108360
339744, -776, -1671, -413, 423990, -690900, 60830
339764, -810, -1627, -404, 453670, -769650, 105490
339784, -658, -1475, -381, 462840, -738920, 2030
339804, -575, -1472, -577, 421960, -643370, -168350
339824, -348, -886, -196, 388500, -558810, -216790
339844, 223, 513, -485, 450870, -519960, -179620
339864, 83, -485, -199, 296240, -315210, -220290
339884, -178, -744, -184, 49490, -121310, -220640
339904, -193, -745, -190, -241920, 89390, -29750
339924, -445, -1244, -384, -420420, 245420, 112630
339944, -1075, -1917, -467, -601790, 362040, 216370
339964, -617, -1198, -118, -652820, 410060, 319900
339984, -379, -1023, -42, -566230, 378700, 173460
340004, -558, -1088, -66, -471940, 147700, 116970
340024, -468, -999, 28, -348040, -32480, 210350
340044, -460, -1052, -90, -114520, -199990, 157780
340064, -437, -1047, -239, 124950, -321580, 92330
340084, -519, -1145, -383, 313810, -353080, 14280
340104, -382, -1050, -328, 474740, -322630, -95270
340124, -333, -1104, -416, 528360, -208810, -196140
340144, -343, -956, -421, 539420, -35210, -145530
340164, -330, -828, -368, 535850, 178710, -113470
340184, -423, -844, -208, 449750, 356230, -100940
340204, -495, -750, -46, 302540, 412440, -70560
340224, -552, -820, 41, 115570, 354270, -86730
340244, -495, -1028, -38, -77700, 263340, -216860
340264, -454, -990, -44, -244580, 153720, -296590
340284, -424, -927, -67, -359800, 45640, -264950
340304, -476, -979, -121, -457450, -53970, -206010
340324, -454, -871, -109, -493080, -173530, -116480
340344, -403, -887, -182, -459970, -308770, -23870
340364, -440, -1023, -261, -373730, -395290, 64050
340384, -341, -972, -295, -202020, -391370, 93100
340404, -399, -1019, -317, -1260, -308280, 61460
340424, -388, -1004, -251, 175420, -198240, 22750
340444, -323, -959, -234, 298130, -111790, -32060
340464, -421, -1029, -255, 355740, -31920, -58240
340484, -369, -910, -253, 387800, 56350, -37170
340504, -411, -893, -196, 386120, 161840, -51170
340524, -443, -871, -120, 348670, 249270, -47670
340544, -468, -878, -39, 279230, 283710, -55510
340564, -505, -911, -15, 171290, 253470, -78190
340584, -438, -887, -23, 34300, 163590, -112910
340604, -422, -912, -63, -101990, 56840, -159600
340624, -423, -922, -97, -226800, -31080, -162050
340644, -434, -916, -122, -316820, -110110, -125020
340664, -419, -911, -162, -362250, -181230, -71610
340684, -420, -940, -189, -365540, -241990, -21700
340704, -364, -961, -235, -317030, -291270, 30520
340724, -356, -977, -248, -228550, -304500, 63070
340744, -370, -999, -251, -109060, -251720, 76720
340764, -393, -989, -238, 23310, -155960, 55790
340784, -354, -952, -238, 136780, -56700, 15890
340804, -405, -966, -223, 219800, 29120, -18200
340824, -389, -907, -194, 274260, 107940, -24570
340844, -414, -898, -158, 302120, 173670, -26880
340864, -425, -870, -111, 288820, 220850, -21000
340884, -441, -895, -71, 174720, 205800, -26600
340904, -451, -900, -48, 86730, 145600, -46970
340924, -440, -892, -55, -7420, 62580, -72450
340944, -430, -897, -73, -100660, -20300, -89530
340964, -419, -909, -98, -178710, -90440, -87710
340984, -414, -917, -124, -233730, -143780, -68670
341004, -402, -922, -155, -256130, -183610, -34160
341024, -385, -941, -178, -248010, -205240, 3080
341044, -362, -936, -190, -200970, -207480, 37310
341064, -375, -994, -220, -137760, -176330, 59710
341084, -336, -936, -213, -52850, -118090, 61670
341104, -382, -965, -204, 37940, -41230, 46970
341124, -381, -963, -198, 114660, 33810, 22890
341144, -397, -958, -192, 175700, 93660, -2450
341164, -397, -921, -155, 221130, 132790, -13720
341184, -412, -930, -135, 231560, 155610, -14210
341204, -408, -886, -108, 213290, 160230, -17010
341224, -416, -894, -84, 172690, 143780, -22960
341244, -424, -910, -75, 109200, 108850, -31850
341264, -415, -895, -75, 38500, 56070, -40740
341284, -404, -892, -87, -34090, -2450, -46760
341304, -386, -881, -92, -101850, -52990, -46270
341324, -397, -919, -114, -158130, -87780, -36960
341344, -409, -951, -135, -197260, -108290, -15190
341364, -410, -944, -120, -209580, -123620, 4620
341384, -417, -985, -134, -191450, -142940, 18690
341404, -427, -1021, -125, -170590, -152250, 26180
341424, -441, -1068, -124, -142170, -150150, 28560
341444, -427, -1098, -115, -122710, -128660, 19460
341464, -444, -1156, -109, -113260, -96460, 27300
341484, -500, -1179, -119, -102480, -66850, 50680
341504, -497, -1193, -108, -81270, -49350, 65240
341524, -448, -1080, -93, -41020, -41860, 35840
341544, -469, -1137, -78, -23450, -18900, -14420
341564, -510, -1231, -118, -32760, 29680, -62650
341584, -516, -1260, -128, -39340, 73850, -84000
341604, -424, -1108, -96, 22750, 63070, -76790
341624, -442, -1098, -124, 88340, 41440, -49280
341644, -406, -1034, -150, 116340, 24850, 16100
341664, -462, -1042, -181, 127610, 37310, 53900
341684, -492, -1128, -225, 144410, 73290, 73290
341704, -599, -1350, -243, 168560, 124670, 53130
341724, -557, -1272, -223, 221760, 161490, 30800
341744, -505, -1148, -188, 284970, 175910, 17570
341764, -474, -1051, -165, 333200, 167720, 39410
341784, -437, -946, -130, 334530, 136010, 107240
341804, -421, -882, -120, 306250, 114240, 122500
341824, -379, -773, -97, 269780, 91350, 118020
341844, -339, -655, -70, 237720, 59850, 100520
341864, -305, -563, -46, 202860, 21070, 71960
341884, -288, -538, -31, 161910, -23590, 34020
341904, -270, -544, -44, 103530, -63210, -2520
341924, -247, -477, -48, 53130, -111160, -13580
341944, -240, -424, -37, 27300, -173600, -9450
341964, -210, -349, -28, 5180, -227850, -20720
341984, -170, -285, -14, -58940, -238490, -49000
342004, -139, -408, -51, -136290, -227430, -74690
342024, -181, -570, -180, -220080, -195440, -49490
342044, -190, -558, -182, -202020, -191940, 49350
342064, -147, -474, -143, -48440, -218540, 127540
342084, -103, -358, -151, 58520, -161280, 130900
342104, -174, -400, -210, 111370, -42770, 103250
342124, -269, -399, -215, 307440, -20300, 80220
342144, -221, -301, -93, 576520, -93100, 4480
342164, -62, -374, 192, 704340, -168840, -94010
342184, -535, -1393, -75, 364070, 61530, -171640
342204, -1150, -1998, -1070, -628180, 812070, -269080
342224, -723, -1950, -537, -908530, 1034460, -289940
342244, -405, -877, 51, 177940, 140910, 140140
342264, -418, -700, 35, 610400, -230440, 308350
342284, -768, -1216, -304, 95620, 214130, 57120
342304, -1019, -1785, -523, -476070, 814100, -369670
342324, -676, -1998, -462, -336070, 885990, -684110
342344, -779, -1998, 176, 338240, 387170, -509670
342364, -1374, -1998, -579, 470960, 33040, 109340
342384, -1203, -1918, -523, -308490, 431130, 187740
342404, -974, -1574, -408, -297360, 496020, -332780
342424, -381, -1713, 108, 310800, 44800, -592340
342444, -692, -1905, -229, 462070, -214830, -545580
342464, -984, -1835, -476, -208810, 15050, -190330
342484, -818, -1314, -354, -569310, 136290, -29120
342504, -604, -931, -167, -156100, -160370, -162050
342524, -220, -793, 14, 124320, -327530, -411180
342544, -255, -1132, -116, 45850, -297220, -539280
342564, -613, -1508, -387, -300300, -131740, -387100
342584, -641, -1197, -249, -497770, -96040, -71050
342604, -520, -890, -181, -267960, -293860, 112700
342624, -339, -655, -118, -93240, -397530, 46550
342644, -217, -585, -109, -140840, -291130, -159320
342664, -235, -707, -168, -275170, -122010, -301350
342684, -315, -860, -236, -277620, -87570, -178010
342704, -304, -811, -191, -51660, -244230, -31920
342724, -269, -716, -109, 111370, -343490, 62090
342744, -297, -686, -92, 83650, -303730, 89040
342764, -328, -718, -146, -78330, -143990, 42700
342784, -373, -801, -189, -197540, 7840, -54250
342804, -419, -904, -250, -138180, 25760, -132790
342824, -425, -945, -268, 81690, -91840, -162610
342844, -381, -1012, -196, 300300, -220360, -159530
342864, -398, -1199, -81, 354970, -255710, -123060
342884, -646, -1593, -241, 162680, -143290, -40390
342904, -813, -1758, -395, -62580, 11620, -10150
342924, -716, -1520, -392, 40040, -42770, -55090
342944, -583, -1348, -285, 305060, -209790, -121660
342964, -528, -1446, -181, 390530, -259000, -183400
342984, -729, -1882, -332, 232960, -162890, -166530
343004, -937, -1998, -486, 75250, -69510, -92400
343024, -881, -1938, -402, 191940, -154700, -55650
343044, -717, -1728, -281, 369810, -265930, -112560
343064, -739, -1884, -316, 310660, -217210, -193130
343084, -848, -1998, -425, 148120, -118650, -178920
343104, -826, -1893, -391, 155330, -140490, -111790
343124, -705, -1621, -280, 278530, -226730, -99820
343144, -607, -1482, -261, 265440, -202440, -166390
343164, -589, -1438, -292, 145530, -108570, -210840
343184, -567, -1346, -287, 104090, -83510, -180670
343204, -517, -1203, -237, 165480, -131320, -130200
343224, -475, -1096, -202, 213990, -161210, -115710
343244, -420, -994, -188, 173040, -117110, -144410
343264, -380, -930, -195, 105910, -49910, -176050
343284, -343, -865, -187, 81900, -18970, -176400
343304, -309, -795, -166, 112280, -30170, -147490
343324, -274, -719, -139, 153930, -50540, -107520
343344, -251, -663, -123, 164080, -47320, -72660
343364, -239, -622, -129, 128240, -4830, -52430
343384, -212, -558, -122, 77840, 55790, -44100
343404, -181, -491, -113, 55300, 99610, -35980
343424, -154, -443, -117, 58660, 125160, -16660
343444, -139, -390, -95, 67690, 148540, 12320
343464, -124, -353, -88, 80710, 171780, 49350
343484, -146, -354, -81, 79170, 200550, 87010
343504, -185, -406, -94, 56140, 244230, 123270
343524, -259, -539, -120, 9800, 301840, 145250
343544, -400, -799, -144, -42420, 361340, 148680
343564, -653, -1358, -216, -79240, 407820, 131810
343584, -956, -1998, -275, -105350, 448070, -1050
343604, -773, -1833, -220, -105070, 424340, -84070
343624, -591, -1375, -191, -157290, 411740, -90370
343644, -608, -1314, -202, -202370, 395640, -61320
343664, -810, -1694, -258, -191100, 370860, -94640
343684, -1076, -1998, -321, -137480, 346080, -202650
343704, -1027, -1998, -354, -137410, 379540, -333340
343724, -847, -1998, -244, -116970, 334950, -324240
343744, -893, -1877, -284, -132790, 270830, -209440
343764, -986, -1998, -304, -149590, 259420, -240940
343784, -1123, -1998, -361, -112350, 248220, -360220
343804, -784, -1998, -225, -57330, 213500, -450870
343824, -687, -1685, -238, -94640, 189350, -388150
343844, -729, -1589, -268, -154770, 164570, -250670
343864, -773, -1627, -272, -126560, 128520, -243880
343884, -641, -1461, -212, -54530, 90790, -326130
343904, -425, -1175, -158, -36120, 83230, -387450
343924, -325, -920, -143, -78540, 81340, -326270
343944, -301, -795, -153, -113260, 73430, -206780
343964, -277, -682, -147, -104580, 55580, -125580
343984, -228, -563, -123, -55790, 33530, -94220
344004, -178, -458, -110, -13370, 31990, -96040
344024, -131, -364, -96, 3920, 59080, -103390
344044, -90, -297, -89, 18340, 88690, -97580
344064, -59, -241, -74, 37310, 107870, -74410
344084, -41, -214, -78, 51730, 126070, -34650
344104, -40, -202, -68, 57680, 144760, 20790
344124, -25, -191, -61, 77070, 143080, 93170
344144, -49, -243, -53, 112000, 115780, 179900
344164, -85, -346, -34, 149800, 79940, 289870
344184, -270, -739, -45, 184100, 35070, 423430
344204, -1322, -1998, -281, 166880, 14980, 583520
344224, -1982, -1998, -762, -5040, 75390, 710430
344244, -692, -1958, -249, -247800, 180180, 469490
344264, -276, -1055, -47, -52150, -2380, 103670
344284, -518, -1281, -98, 133350, -267680, 201180
344304, -1426, -1998, -452, -31920, -286720, 450380
344324, -1993, -1998, -832, -246050, -263760, 634060
344344, -915, -1998, -352, -239750, -324100, 483980
344364, -593, -1532, -277, 10990, -510160, 101780
344384, -833, -1737, -353, 23380, -618450, 96950
344404, -1298, -1998, -472, -5390, -708050, 318990
344424, -1190, -1998, -446, 17920, -761880, 380170
344444, -844, -1594, -427, 10780, -718760, 129780
344464, -647, -1214, -400, -16240, -701050, -252560
344484, -566, -999, -333, 73920, -815570, -197820
344504, -483, -839, -245, 52360, -816620, -181790
344524, -417, -756, -205, -92680, -699300, -206220
344544, -396, -734, -235, -269570, -537250, -224980
344564, -367, -688, -252, -334810, -443730, -237790
344584, -303, -579, -224, -291620, -411670, -251580
344604, -234, -487, -194, -214550, -400330, -254660
344624, -158, -406, -170, -148890, -380170, -236460
344644, -77, -312, -134, -113890, -339640, -200270
344664, -18, -257, -124, -113470, -269430, -144060
344684, -5, -249, -133, -126630, -183260, -70140
344704, -20, -256, -136, -117250, -102830, 13580
344724, -30, -259, -144, -71190, -42350, 90790
344744, -42, -275, -151, 1610, 1890, 154420
344764, -69, -322, -164, 87640, 42840, 213150
344784, -111, -415, -175, 189770, 74410, 267120
344804, -205, -648, -195, 302470, 95900, 316400
344824, -577, -1307, -99, 391510, 131110, 359800
344844, -1210, -1998, -433, 326690, 254310, 401240
344864, -918, -1998, -492, 42420, 437780, 354410
344884, -439, -1081, -223, -38990, 487130, 250740
344904, -268, -707, -117, 185430, 301910, 304430
344924, -541, -1056, -177, 220150, 258580, 414120
344944, -1021, -1991, -386, 46340, 384370, 455630
344964, -1344, -1998, -604, -106050, 492310, 376530
344984, -927, -1998, -297, -102830, 502180, 208670
345004, -773, -1773, -293, 39200, 358960, 196910
345024, -863, -1737, -379, -138250, 407330, 294840
345044, -1009, -1998, -417, -292950, 468230, 289590
345064, -903, -1998, -287, -210280, 418600, 158550
345084, -790, -1966, -233, -42700, 315630, 43540
345104, -724, -1670, -333, -115080, 344260, 27160
345124, -652, -1396, -321, -336910, 460460, 44590
345144, -483, -1055, -210, -318010, 416360, 59640
345164, -424, -952, -157, -133700, 286370, 32690
345184, -409, -960, -148, -16660, 219660, -7000
345204, -449, -1043, -187, -27090, 247870, -49420
345224, -396, -960, -201, -120120, 341600, -91280
345244, -305, -756, -170, -140770, 373030, -101010
345264, -215, -541, -134, -65100, 321440, -59290
345284, -173, -411, -99, 23030, 259140, -2100
345304, -145, -334, -99, 79450, 231560, 42140
345324, -139, -301, -99, 100170, 233870, 67200
345344, -127, -265, -99, 98770, 262010, 74550
345364, -116, -247, -84, 110180, 302190, 83580
345384, -113, -272, -80, 144550, 279160, 118860
345404, -125, -344, -73, 183960, 236740, 184170
345424, -207, -578, -72, 211610, 191310, 281680
345444, -472, -1139, -76, 208670, 151760, 405650
345464, -1263, -1998, -290, 84420, 177730, 510090
345484, -1154, -1998, -440, -171850, 280070, 392490
345504, -606, -1467, -177, -131180, 180810, 186900
345524, -395, -1113, -63, 41930, -51380, 218610
345544, -615, -1390, -114, -13510, -126420, 348320
345564, -1204, -1998, -394, -219170, -100310, 457660
345584, -1367, -1998, -524, -322140, -119490, 401870
345604, -815, -1864, -263, -148260, -317030, 242270
345624, -606, -1415, -202, -53410, -468860, 172760
345644, -760, -1518, -289, -134400, -518910, 264600
345664, -1026, -1920, -406, -176960, -569450, 355460
345684, -1037, -1959, -399, -94570, -649460, 294770
345704, -785, -1554, -347, -36050, -681380, 90580
345724, -648, -1257, -343, -85820, -657300, -64890
345744, -607, -1062, -324, -81900, -707420, -57260
345764, -557, -895, -287, -30380, -770840, -31290
345784, -437, -706, -230, -17430, -770490, -76580
345804, -368, -610, -192, -82180, -690130, -156030
345824, -328, -580, -201, -189000, -575680, -212310
345844, -301, -586, -225, -253890, -488320, -230580
345864, -279, -568, -220, -250250, -440860, -224980
345884, -230, -523, -202, -187040, -430850, -203140
345904, -182, -475, -165, -116550, -427140, -170660
345924, -125, -431, -142, -72590, -400470, -130830
345944, -107, -429, -136, -67550, -339220, -84840
345964, -119, -468, -147, -87430, -254170, -26460
345984, -165, -552, -168, -96250, -178920, 42630
346004, -211, -652, -185, -59850, -133980, 114450
346024, -287, -800, -198, 19180, -111440, 170590
346044, -390, -1025, -190, 110250, -90020, 203420
346064, -491, -1282, -186, 177520, -55720, 210700
346084, -566, -1463, -234, 170240, 10710, 202440
346104, -547, -1412, -275, 81480, 115220, 195720
346124, -479, -1234, -239, 31150, 175350, 219310
346144, -531, -1283, -225, 91350, 146510, 285110
346164, -702, -1614, -244, 148470, 125090, 352450
346184, -850, -1958, -313, 147140, 155820, 368410
346204, -696, -1758, -281, 83790, 232540, 327390
346224, -647, -1573, -260, 23170, 288820, 278250
346244, -711, -1601, -275, -840, 288190, 317310
346264, -913, -1929, -345, -67760, 299950, 397180
346284, -901, -1998, -344, -82530, 324590, 314650
346304, -740, -1753, -284, -75250, 335370, 216650
346324, -620, -1447, -259, -108080, 353010, 208110
346344, -626, -1357, -273, -154140, 370860, 231910
346364, -649, -1374, -276, -158900, 370230, 226450
346384, -638, -1414, -264, -105630, 348740, 163520
346404, -588, -1336, -248, -71890, 354480, 77070
346424, -503, -1157, -228, -90580, 388430, 29750
346444, -430, -971, -222, -90930, 396200, 24710
346464, -340, -768, -186, -59990, 382690, 30940
346484, -277, -598, -156, -6860, 361830, 40600
346504, -241, -498, -150, 40110, 351680, 44730
346524, -218, -432, -141, 78750, 353920, 41580
346544, -184, -362, -126, 117460, 357980, 39340
346564, -162, -315, -116, 156310, 357140, 44450
346584, -154, -301, -108, 186130, 355390, 64680
346604, -137, -300, -97, 212870, 340480, 103390
346624, -164, -371, -87, 239050, 311430, 164150
346644, -244, -566, -88, 252140, 282730, 245910
346664, -454, -1005, -113, 242410, 255710, 339500
346684, -977, -1949, -248, 171080, 262080, 417970
346704, -1127, -1998, -384, 27020, 303240, 409220
346724, -657, -1587, -201, -46340, 282870, 270410
346744, -480, -1158, -113, 12880, 149590, 220570
346764, -588, -1278, -135, 9380, 37100, 311640
346784, -902, -1841, -279, -116200, 17500, 389970
346804, -1120, -1998, -364, -199220, -23660, 404600
346824, -888, -1998, -261, -170100, -117040, 301000
346844, -739, -1666, -230, -113050, -243180, 210070
346864, -793, -1563, -280, -158410, -327530, 249830
346884, -838, -1558, -293, -196770, -414680, 335370
346904, -808, -1517, -304, -148120, -511980, 320110
346924, -702, -1386, -274, -103880, -561610, 183470
346944, -668, -1308, -306, -99820, -582190, 45290
346964, -641, -1169, -304, -118790, -616350, 11620
346984, -569, -972, -268, -82810, -692230, 37730
347004, -478, -775, -230, -58170, -732200, 18270
347024, -386, -625, -199, -91980, -709100, -41650
347044, -349, -570, -196, -163030, -640710, -110460
347064, -313, -532, -195, -231630, -562590, -155190
347084, -291, -526, -200, -247380, -527800, -171010
347104, -264, -515, -187, -220710, -512260, -164220
347124, -223, -514, -189, -180950, -502040, -147280
347144, -206, -530, -168, -146720, -482580, -117810
347164, -201, -565, -159, -123900, -399280, -12880
347184, -233, -639, -170, -116270, -355040, 57540
347204, -282, -736, -185, -98070, -310870, 121870
347224, -325, -825, -191, -52850, -276500, 155750
347244, -357, -914, -192, -2730, -238420, 159320
347264, -385, -1010, -196, 33320, -192290, 145740
347284, -404, -1125, -202, 53760, -144550, 137060
347304, -453, -1251, -224, 63350, -103180, 161140
347324, -500, -1330, -237, 83370, -79870, 215110
347344, -534, -1359, -231, 115850, -64820, 262500
347364, -568, -1404, -236, 136360, -33950, 274470
347384, -588, -1482, -255, 144970, 8470, 254940
347404, -606, -1569, -260, 148120, 51870, 231560
347424, -628, -1625, -266, 151130, 85260, 235620
347444, -652, -1590, -264, 145740, 111230, 277270
347464, -626, -1487, -272, 120750, 156100, 306880
347484, -586, -1367, -271, 99820, 212800, 298340
347504, -541, -1237, -259, 101500, 258020, 294420
347524, -516, -1133, -250, 118580, 296520, 283640
347544, -490, -1055, -252, 100520, 366730, 262360
347564, -474, -978, -258, 82180, 433720, 242340
347584, -468, -933, -268, 79100, 482440, 235830
347604, -470, -884, -279, 87990, 524650, 223300
347624, -506, -881, -288, 115990, 554680, 207340
347644, -459, -780, -285, 152950, 592340, 167020
347664, -444, -705, -280, 201250, 627480, 117880
347684, -411, -616, -277, 237300, 668430, 84840
347704, -392, -544, -275, 273980, 699160, 70630
347724, -358, -455, -258, 311220, 719180, 89180
347744, -346, -414, -246, 348250, 726530, 129360
347764, -385, -458, -247, 362670, 734580, 186270
347784, -418, -522, -237, 354690, 740670, 252980
347804, -545, -734, -240, 344190, 733250, 314790
347824, -748, -1119, -286, 317030, 727580, 355670
347844, -853, -1426, -293, 256060, 745290, 328300
347864, -771, -1365, -251, 194810, 756700, 229390
347884, -660, -1226, -200, 139650, 746620, 118440
347904, -668, -1245, -199, 83230, 718480, 60200
347924, -738, -1396, -210, 16800, 675150, 59710
347944, -808, -1577, -197, -20930, 609210, 39340
347964, -774, -1582, -158, -12320, 518630, -31430
347984, -632, -1378, -115, -4480, 425040, -128870
348004, -589, -1311, -116, -33390, 343980, -200130
348024, -594, -1282, -110, -82040, 257390, -196070
348044, -606, -1249, -118, -107800, 31360, -147350
348064, -563, -1147, -101, -157500, -63700, -178780
348084, -507, -1026, -98, -205170, -144130, -212450
348104, -460, -920, -121, -267890, -222600, -199290
348124, -454, -832, -140, -305900, -318920, -138460
348144, -473, -772, -164, -317310, -420840, -70560
348164, -424, -603, -140, -295330, -516390, -50330
348184, -399, -572, -145, -314230, -555870, -84000
348204, -474, -627, -218, -378980, -566370, -101430
348224, -521, -732, -292, -389130, -602560, -119910
348244, -501, -676, -261, -319340, -666400, -153300
348264, -473, -635, -226, -231910, -754250, -171990
348284, -426, -512, -177, -269010, -748580, -187390
348304, -455, -612, -209, -368060, -688240, -202510
348324, -546, -778, -268, -474250, -633780, -199430
348344, -561, -797, -251, -484750, -653100, -187040
348364, -495, -728, -188, -489930, -649740, -215880
348384, -463, -890, -286, -552300, -599340, -251230
348404, -648, -1347, -473, -643580, -540470, -200270
348424, -559, -1104, -356, -536900, -612570, -15820
348444, -350, -866, -124, -286090, -701750, 132230
348464, -670, -1200, -308, -367500, -489160, 168700
348484, -665, -1310, -510, -647920, -192570, 188160
348504, -658, -1419, -449, -608650, -231840, 187600
348524, -351, -1213, -280, -190190, -459900, 231210
348544, -285, -1140, -407, 42630, -423150, 200970
348564, -413, -1210, -639, -161700, 52290, 171640
348584, -461, -958, -631, -241150, 493220, 184170
348604, -478, -538, -536, 77210, 689360, 205590
348624, -890, -658, -581, 355460, 881160, 204330
348644, -998, -685, -556, 402290, 1143380, 121520
348664, -622, -356, -350, 569240, 1196090, -69160
348684, -332, -411, 37, 912310, 951300, -138530
348704, -514, -807, -131, 902370, 817110, 18340
348724, -897, -1201, -158, 408380, 887180, 338240
348744, -882, -1124, -45, 108220, 717080, 680540
348764, -554, -886, 23, 76090, 338590, 783860
348784, -563, -1065, -5, -119980, 209930, 523950
348804, -1046, -1609, -333, -332780, 69370, 427070
348824, -540, -967, -156, -532630, -65660, 509880
348844, 25, -1320, -397, -592550, -158760, 334600
348864, -700, -1280, -211, -587090, -210070, 181230
348884, -81, -154, 196, -447440, -38500, -96600
348904, -721, -1455, -213, -251790, 210, -406560
348924, -680, -1345, -163, -303240, 70070, -548450
348944, -697, -1256, -155, 43330, 69090, -629300
348964, -606, -1109, -162, 180250, 44590, -618450
348984, -495, -852, -145, 251790, -33390, -550130
349004, -340, -837, -165, 256760, -131600, -409360
349024, -97, -611, -157, 228270, -182070, -267540
349044, -109, -692, -157, 209650, -157220, -34720
349064, -209, -781, -92, 191870, -87780, 210280
349084, -214, -1160, -547, 117390, -113820, 413840
349104, 68, -1238, -891, -63560, -134610, 479360
349124, -277, -1156, -454, -154910, 167510, 405020
349144, -647, -1210, -6, -212870, 489790, 292040
349164, -637, -1171, 313, -232750, 439040, 187670
349184, -357, -1147, 5, -211820, 138390, 58590
349204, -406, -1088, -109, -66920, -55440, -15260
349224, -410, -1059, -187, 133770, -36470, -38080
349244, -266, -1042, -412, 195440, -109340, -92470
349264, -287, -935, -303, 132510, -142450, -165620
349284, -290, -857, -192, 68110, -104160, -211960
349304, -293, -852, -156, 35770, -54670, -208180
349324, -277, -831, -157, 27720, -19880, -156170
349344, -287, -836, -127, 20720, 4130, -70840
349364, -253, -879, -192, 5180, 12040, 19460
349384, -250, -956, -248, -23030, 6860, 90230
349404, -255, -999, -271, -48790, 20650, 133700
349424, -296, -1023, -205, -78540, 57260, 142660
349444, -310, -1032, -152, -87360, 90160, 128380
349464, -332, -1032, -97, -66150, 88760, 103460
349484, -276, -1014, -187, -34020, 55020, 61530
349504, -307, -983, -228, -1890, 3990, 3080
349524, -329, -957, -207, 26040, -11480, -47320
349544, -309, -936, -220, 38920, -24430, -78820
349564, -300, -921, -223, 38570, -39550, -91980
349584, -278, -915, -229, 38010, -38080, -87850
349604, -277, -924, -241, 33040, -32200, -72170
349624, -288, -919, -212, 15540, -16870, -44940
349644, -253, -945, -242, 1750, 3780, -9660
349664, -265, -957, -225, -15050, 5880, 21560
349684, -276, -950, -203, -27160, 26530, 45360
349704, -280, -968, -193, -34650, 42840, 56560
349724, -278, -971, -169, -34090, 46060, 57470
349744, -298, -956, -141, -24710, 40460, 51450
349764, -281, -960, -200, -10640, 33810, 34510
349784, -302, -959, -214, 6440, 11970, 5740
349804, -290, -982, -245, 25060, -11060, -22260
349824, -296, -983, -241, 33530, -21280, -42840
349844, -283, -960, -240, 25620, -9590, -33040
349864, -299, -940, -202, 14420, 8470, -14350
349884, -280, -946, -208, 2310, 12040, 5530
349904, -266, -953, -215, -5740, 15470, 21910
349924, -269, -949, -204, -15050, 18340, 28630
349944, -280, -935, -183, -20510, 23310, 26390
349964, -284, -959, -194, -15400, 19250, 19670
349984, -260, -963, -234, -1330, 4970, 9940
350004, -279, -953, -230, 9170, -3010, -4690
350024, -293, -940, -212, 15820, -1890, -19530
350044, -289, -946, -223, 20370, -7980, -25200
350064, -277, -949, -233, 16310, -9030, -21630
350084, -306, -949, -185, 4130, -770, -12530
350104, -289, -948, -192, -7630, 8960, 2450
350124, -279, -958, -200, -14630, 9170, 16310
350144, -274, -960, -200, -17220, 12180, 22610
350164, -284, -968, -183, -17290, 15120, 21840
350184, -276, -962, -183, -12390, 13090, 15890
350204, -285, -959, -185, -3010, 7770, 5180
350224, -301, -962, -194, 5950, 6510, -5810
350244, -290, -955, -216, 11060, 2030, -12530
350264, -283, -943, -223, 11760, -4970, -14350
350284, -294, -948, -215, 10360, -4620, -14280
350304, -295, -945, -207, 8820, -700, -10990
350324, -301, -949, -187, 4690, 3780, -2660
350344, -286, -947, -195, -2030, 6930, 6090
350364, -284, -954, -193, -9170, 3780, 11340
350384, -273, -948, -203, -11480, 2170, 9450
350404, -282, -961, -205, -8120, 560, 4760
350424, -266, -968, -227, -1330, 1610, 420
350444, -281, -967, -209, 3640, 630, -630
350464, -280, -965, -209, 1680, 5320, -420
350484, -282, -957, -201, -1050, 3360, -490
350504, -280, -956, -215, -1330, 1820, -840
350524, -283, -950, -215, 1680, 490, -2870
350544, -287, -950, -213, 2940, 630, -4830
350564, -286, -934, -213, 2730, 140, -6860
350584, -286, -939, -224, 980, -1820, -7700
350604, -275, -954, -243, 560, -3290, -9030
350624, -282, -946, -222, 2520, -5600, -10150
350644, -285, -945, -216, 0, -1260, -8190
350664, -276, -947, -220, -5670, 2100, -4410
350684, -278, -953, -204, -7770, 1890, 1050
350704, -282, -955, -193, -7490, 4410, 6020
350724, -279, -971, -197, -8120, 8820, 8750
350744, -279, -970, -191, -6090, 7700, 9730
350764, -280, -964, -181, -3360, 7700, 5390
350784, -278, -966, -204, 2170, 3150, -560
350804, -284, -958, -205, 4340, -1190, -6860
350824, -286, -952, -205, 1610, 350, -7910
350844, -284, -948, -203, 280, 350, -4550
350864, -281, -947, -203, 0, 1540, -490
350884, -277, -966, -218, 560, 490, 840
350904, -282, -960, -211, -70, -1610, 0
350924, -292, -959, -196, -980, 1190, -1260
350944, -281, -948, -208, 2870, 2240, -2450
350964, -287, -952, -205, 5530, 700, -980
350984, -282, -940, -205, 4060, 1330, -1330
351004, -287, -932, -193, 140, 700, -1960
351024, -280, -941, -217, -1610, -2240, -2870
351044, -271, -951, -236, -1330, -7350, -3500
351064, -282, -958, -228, -1680, -6160, -3080
351084, -273, -960, -230, -2870, -1470, -2030
351104, -272, -966, -222, -2940, -70, 1750
351124, -277, -971, -208, -3990, 3290, 3710
351144, -280, -965, -196, -6300, 3220, 3430
351164, -277, -963, -195, -6160, 4480, 4690
351184, -274, -959, -193, -3360, 4130, 3150
351204, -271, -949, -208, 420, 3150, 70
351224, -274, -960, -219, 4620, 630, -3360
351244, -278, -951, -212, 5460, -560, -5950
351264, -294, -946, -186, 1680, 1190, -5530
351284, -284, -952, -203, -1260, 2660, -4130
351304, -284, -956, -195, -1190, 980, -2170
351324, -282, -961, -193, -1400, 2940, 490
351344, -277, -961, -202, -560, 2590, 1750
351364, -278, -958, -202, 2240, 910, -420
351384, -281, -947, -194, 1540, -490, -4830
351404, -283, -955, -202, 0, 1260, -4970
351424, -268, -950, -218, 630, 770, -2870
351444, -280, -954, -212, 2030, -1680, -1330
351464, -278, -949, -208, 2030, 140, -2450
351484, -276, -940, -206, 1680, 980, -2660
351504, -270, -958, -220, 350, 1960, -1050
351524, -268, -959, -205, 770, 840, -280
351544, -266, -947, -194, -1400, 2590, 2520
351564, -266, -941, -204, -4060, 3570, 3500
351584, -272, -945, -214, -2170, 1330, -1120
351604, -280, -963, -222, 2170, 0, -5670
351624, -289, -965, -201, 4340, 980, -2030
351644, -282, -965, -191, -4340, 6930, 4480
351664, -267, -962, -190, -5670, 5180, 10150
351684, -272, -966, -188, -3850, 3220, 8470
351704, -275, -967, -189, -2100, 1890, 2030
351724, -276, -955, -197, -630, -770, -2730
351744, -279, -950, -200, 140, -1540, -5950
351764, -274, -944, -219, 2100, -3290, -5670
351784, -278, -965, -219, 3220, -3220, -4900
351804, -273, -953, -214, 630, -1190, -2030
351824, -283, -953, -192, -3710, 2870, 2030
351844, -277, -964, -200, -3640, 2940, 1890
351864, -274, -957, -198, -2100, 1190, 2730
351884, -282, -959, -183, -2100, 2800, 1260
351904, -276, -963, -194, -420, 2590, 420
351924, -270, -957, -204, 350, -630, 420
351944, -273, -953, -212, 0, -1680, -1330
351964, -288, -955, -198, -280, -910, -5390
351984, -284, -955, -207, 910, 350, -5740
352004, -282, -948, -203, 280, -1190, -1680
352024, -274, -946, -207, -2520, 280, 1260
352044, -285, -963, -197, -3360, 980, 1890
352064, -275, -961, -204, -2240, 910, 1960
352084, -275, -962, -202, -2170, 630, 2170
352104, -283, -953, -197, -1050, 280, -280
352124, -281, -949, -202, 1190, 350, -2590
352144, -270, -947, -219, 3150, -490, -4200
352164, -277, -945, -214, 2520, -3780, -3990
352184, -274, -942, -213, -700, -1260, -3570
352204, -273, -953, -210, -2940, -70, -1260
352224, -287, -963, -194, -5110, 980, 910
352244, -273, -968, -204, -6510, 2940, 3220
352264, -273, -963, -201, -7980, 210, 4900
352284, -274, -964, -221, -6510, -700, 2100
352304, -280, -956, -219, -1330, -3360, -3360
352324, -296, -956, -203, 2380, -3220, -7280
352344, -344, -978, -176, 980, -840, -8330
352364, -379, -976, -135, -3080, -2870, -5110
352384, -535, -1023, -13, -11200, -23520, -3220
352404, -472, -1027, -150, -15610, -74550, -6580
352424, -466, -957, -149, -5040, -215740, 5460
352444, -543, -1018, -121, 20160, -316400, 31500
352464, -555, -1091, -171, 49700, -363510, 16870
352484, -455, -1083, -302, 37520, -406070, -33670
352504, -402, -1134, -150, 16590, -439880, -64960
352524, -108, -727, -407, 115360, -165690, 125510
352544, -720, -990, -204, 145600, 252840, 416500
352564, -1003, -1395, -377, -160860, 614880, 419020
352584, -701, -1020, -180, -185220, 687050, 39060
352604, -404, -531, 462, 182490, 365680, -169960
352624, -221, -533, 201, 363300, -180110, -96460
352644, -407, -913, -8, 141120, -415940, 32480
352664, -769, -978, -764, -262990, -272300, 43470
352684, -1117, -923, -349, -483560, 44380, -35000
352704, -685, -1272, -215, -117040, 253680, -57120
352724, -283, -919, 12, 218190, -25480, 2380
352744, -76, -715, 85, 183890, -118020, 85120
352764, -371, -830, -104, -90860, -52220, 144410
352784, -1126, -853, -65, -208460, 4130, 61530
352804, -157, -946, 145, -188790, 138950, -217700
352824, -168, -1332, 78, -123130, 3500, -362110
352844, -657, -658, 284, -129570, -197540, -269360
352864, -487, -824, 8, -25340, -211540, -166180
352884, -292, -649, 302, 34930, -412440, 17150
352904, -327, -530, -220, -37310, -578550, 119490
