T [ms],AccX [mg],AccY [mg],AccZ [mg],GyroX [mdps],GyroY [mdps],GyroZ [mdps]
466524, 552, -889, -17, 210, 17850, -1820
466544, 526, -856, -27, 2310, 16450, -910
466564, 514, -865, -59, -3220, 1470, -1330
466584, 574, -853, -30, -5740, 9590, -840
466604, 565, -863, -32, -5040, 1330, -3710
466624, 526, -861, -10, -2240, 2240, 420
466644, 532, -885, -57, -3290, 1680, 2660
466664, 579, -857, -70, -4690, -70, -3360
466684, 599, -851, -62, -3010, -4060, -5110
466704, 571, -836, -40, 2170, -4270, 420
466724, 519, -847, -22, 4060, 1190, 6440
466744, 494, -856, -36, 3290, 13790, 10570
466764, 551, -856, -47, 3010, 10150, 8820
466784, 539, -861, -3, 5320, 980, 5250
466804, 524, -865, -19, 6230, 1330, 6300
466824, 525, -861, 19, 3710, 9100, 6510
466844, 541, -868, -19, 6510, 8750, 6860
466864, 534, -877, -30, 2800, -3010, 5320
466884, 510, -883, 25, 1540, 2240, 5670
466904, 513, -883, -31, 4620, 6720, 9520
466924, 519, -885, -3, 4480, 8330, 8960
466944, 506, -892, 58, 6510, 15190, 7210
466964, 525, -890, 16, 6860, 15400, 5530
466984, 521, -883, 17, 2380, 5530, 3150
467004, 513, -888, 29, 420, 3850, 2940
467024, 547, -894, -13, -1820, 5250, 2380
467044, 518, -885, -10, -4760, -1050, 560
467064, 478, -884, 34, 0, 5460, 3360
467084, 417, -913, 100, 2660, 16240, 7490
467104, 480, -809, 75, 210, 7700, 3080
467124, 398, -818, -86, -11200, -64190, -5740
467144, 266, -828, -131, -46340, -124320, 4270
467164, 143, -583, -41, -45920, -125860, 29470
467184, 158, -872, -93, -9380, -109060, 50610
467204, -55, -933, -171, 20160, -81900, 326200
467224, -446, -900, -114, -72380, -67410, 385000
467244, -543, -975, -183, -64890, -92190, 436940
467264, -590, -996, -188, -30730, -97510, 322630
467284, -464, -861, -148, 7210, -61950, 74410
467304, -387, -817, -116, 19040, -19810, -138040
467324, -230, -851, -122, 12950, -12320, -212030
467344, -224, -976, -112, 6440, -33530, -121240
467364, -372, -1139, -144, 7420, -96950, 115710
467384, -605, -1263, -178, -8400, -150850, 363510
467404, -699, -1292, -214, -24430, -150290, 420280
467424, -599, -1155, -204, -38500, -102970, 257390
467444, -460, -1020, -172, -40530, -44800, 25760
467464, -348, -1009, -176, -4200, -48230, -90720
467484, -313, -1049, -137, 52220, -101850, -57260
467504, -396, -1152, -137, 70840, -144130, 86310
467524, -568, -1268, -186, 24080, -150710, 253120
467544, -631, -1263, -219, -33950, -118720, 309260
467564, -537, -1110, -211, -55300, -74760, 207410
467584, -418, -959, -176, -20300, -50400, 44660
467604, -310, -860, -147, 49140, -67550, -48440
467624, -266, -823, -112, 92190, -94430, -39620
467644, -308, -870, -122, 63210, -76790, 32410
467664, -409, -971, -167, -2450, -41370, 123480
467684, -462, -1013, -189, -39060, -13370, 170660
467704, -444, -970, -178, -24430, 3710, 137900
467724, -386, -880, -161, 23800, 13300, 52780
467744, -300, -775, -126, 60760, 33740, -30800
467764, -262, -729, -109, 72660, 52570, -59990
467784, -293, -768, -129, 38080, 90860, -37170
467804, -350, -842, -153, -7910, 129080, 9800
467824, -394, -895, -164, -15120, 141050, 47040
467844, -421, -930, -164, 20020, 134120, 43260
467864, -415, -932, -155, 61600, 133210, -2660
467884, -390, -923, -137, 90370, 141190, -64120
467904, -384, -951, -140, 88340, 165760, -111510
467924, -401, -1000, -157, 56280, 201110, -123480
467944, -437, -1047, -173, 32830, 218540, -96950
467964, -470, -1066, -172, 50610, 199710, -55720
467984, -482, -1072, -161, 95550, 163520, -37520
468004, -478, -1082, -151, 125370, 145320, -62090
468024, -468, -1097, -152, 121380, 151830, -109410
468044, -458, -1113, -162, 96600, 166740, -144480
468064, -451, -1105, -161, 78610, 167160, -145740
468084, -454, -1084, -153, 88270, 138950, -113610
468104, -467, -1071, -151, 114870, 68390, -55020
468124, -468, -1063, -149, 97860, 63910, -78750
468144, -449, -1050, -144, 79800, 61670, -115990
468164, -428, -1041, -143, 67830, 48160, -131040
468184, -413, -1019, -137, 66010, 17010, -110040
468204, -404, -986, -129, 66290, -20720, -71050
468224, -396, -936, -124, 51800, -44800, -45010
468244, -391, -907, -125, 23940, -53060, -44660
468264, -381, -889, -125, -140, -58240, -63280
468284, -363, -863, -123, -10500, -71330, -82460
468304, -346, -852, -117, -13790, -92610, -84070
468324, -343, -844, -115, -19040, -118930, -60130
468344, -344, -831, -117, -32130, -140140, -27090
468364, -350, -819, -119, -52360, -150990, -3220
468384, -348, -813, -123, -73500, -154560, 2170
468404, -352, -818, -130, -84140, -160650, -3640
468424, -350, -833, -131, -83230, -172480, -9380
468444, -359, -870, -137, -76020, -188930, -4620
468464, -377, -912, -142, -70350, -206220, 15820
468484, -406, -964, -151, -69020, -220220, 45010
468504, -435, -1012, -161, -72730, -227010, 68530
468524, -447, -1040, -172, -78260, -225610, 74130
468544, -447, -1052, -177, -77210, -223230, 64890
468564, -435, -1044, -180, -64120, -226660, 54110
468584, -432, -1053, -179, -44100, -234640, 53830
468604, -439, -1068, -180, -25900, -241220, 65730
468624, -455, -1095, -184, -14420, -241430, 81550
468644, -471, -1120, -193, -10850, -231910, 88970
468664, -462, -1108, -196, -9100, -215250, 81270
468684, -447, -1088, -195, 1400, -199290, 61320
468704, -429, -1079, -187, 20790, -187390, 43680
468724, -421, -1067, -180, 41720, -178780, 41860
468744, -423, -1058, -184, 48580, -161700, 52990
468764, -415, -1024, -186, 40880, -132230, 62860
468784, -396, -976, -184, 38500, -101080, 59640
468804, -372, -932, -172, 49210, -75320, 46550
468824, -357, -911, -164, 68670, -55860, 35350
468844, -353, -906, -160, 80920, -33600, 31640
468864, -354, -903, -161, 78330, -2660, 36120
468884, -363, -902, -166, 65800, 35350, 45220
468904, -360, -881, -169, 56420, 72380, 50890
468924, -348, -850, -164, 61320, 101010, 48720
468944, -341, -822, -151, 73500, 126000, 39620
468964, -348, -829, -158, 82250, 152600, 31150
468984, -360, -845, -159, 75460, 187390, 26390
469004, -383, -879, -161, 74760, 237790, 16520
469024, -407, -922, -166, 79730, 255780, 4340
469044, -424, -949, -166, 86100, 271040, -13510
469064, -428, -960, -162, 98210, 278110, -31220
469084, -434, -977, -164, 100170, 288680, -48090
469104, -440, -996, -167, 100940, 296520, -59920
469124, -453, -1015, -165, 110880, 293720, -65730
469144, -465, -1046, -169, 124180, 284760, -70000
469164, -477, -1073, -168, 136990, 272440, -74060
469184, -488, -1094, -167, 148470, 256760, -79100
469204, -484, -1098, -161, 151270, 243390, -85890
469224, -476, -1086, -162, 149100, 230020, -93450
469244, -458, -1057, -154, 151690, 208180, -91630
469264, -456, -1057, -153, 154700, 180880, -81690
469284, -456, -1058, -149, 152740, 153300, -70910
469304, -455, -1054, -145, 147630, 127260, -66360
469324, -440, -1033, -137, 139160, 102480, -68110
469344, -423, -1004, -134, 125020, 79940, -71330
469364, -411, -976, -129, 110950, 53760, -66850
469384, -397, -947, -122, 98980, 23730, -55930
469404, -388, -923, -116, 83090, -3500, -46830
469424, -380, -899, -117, 62230, -25830, -42770
469444, -371, -877, -113, 41440, -47250, -42700
469464, -365, -861, -113, 22680, -68740, -44940
469484, -359, -850, -111, 4550, -90440, -45080
469504, -354, -841, -110, -13650, -112000, -41090
469524, -352, -833, -112, -33250, -132300, -32130
469544, -350, -826, -116, -53690, -150290, -22050
469564, -353, -825, -119, -71960, -166670, -13510
469584, -360, -838, -124, -85400, -183190, -6860
469604, -368, -860, -129, -95340, -199150, -560
469624, -381, -888, -136, -104720, -213010, 7630
469644, -398, -929, -145, -113400, -225470, 19600
469664, -418, -969, -152, -118160, -238980, 34720
469684, -430, -998, -158, -118510, -252630, 48510
469704, -441, -1013, -167, -117670, -263620, 59360
469724, -440, -1019, -170, -115570, -271530, 66290
469744, -441, -1024, -172, -108780, -278600, 69790
469764, -449, -1050, -182, -98070, -285040, 72730
469784, -465, -1092, -190, -85050, -290220, 76370
469804, -480, -1131, -193, -69580, -293790, 79590
469824, -484, -1146, -196, -52570, -296100, 81830
469844, -477, -1131, -203, -42840, -289590, 78610
469864, -454, -1092, -197, -36470, -276150, 69160
469884, -438, -1066, -195, -22750, -263550, 57260
469904, -432, -1056, -195, 5670, -232680, 45360
469924, -418, -1035, -190, 17850, -211960, 42210
469944, -407, -1013, -188, 24640, -184380, 37450
469964, -401, -991, -187, 29750, -154140, 33670
469984, -382, -956, -179, 43330, -128520, 28980
470004, -365, -932, -172, 48580, -95620, 21560
470024, -361, -921, -171, 46130, -56980, 18060
470044, -346, -887, -163, 52080, -24850, 20860
470064, -335, -861, -163, 51940, 11690, 26460
470084, -333, -842, -162, 48720, 51520, 30870
470104, -328, -821, -158, 53270, 85750, 32480
470124, -337, -826, -158, 57890, 119350, 31430
470144, -352, -846, -161, 58450, 154630, 26950
470164, -363, -860, -159, 60480, 186690, 21140
470184, -383, -897, -164, 59570, 217210, 14280
470204, -405, -931, -167, 58170, 245280, 4830
470224, -420, -961, -167, 63490, 266140, -6930
470244, -436, -995, -171, 68740, 283710, -19880
470264, -447, -1006, -174, 72380, 299180, -33950
470284, -451, -1007, -173, 80640, 308700, -47880
470304, -457, -1023, -173, 91840, 313390, -61740
470324, -473, -1053, -174, 102690, 315070, -74480
470344, -481, -1079, -177, 114730, 312130, -83790
470364, -490, -1100, -171, 129360, 302750, -88900
470384, -496, -1115, -171, 143010, 287630, -89320
470404, -495, -1113, -170, 146300, 276290, -91910
470424, -476, -1082, -162, 149170, 261940, -95270
470444, -462, -1059, -156, 157080, 239190, -93170
470464, -457, -1049, -153, 159250, 215740, -86450
470484, -448, -1036, -146, 157710, 191380, -77700
470504, -442, -1023, -139, 155680, 164500, -69510
470524, -431, -1010, -138, 146720, 140280, -64470
470544, -417, -982, -129, 133700, 116550, -61110
470564, -401, -953, -123, 122080, 89460, -54460
470584, -384, -917, -118, 106050, 63700, -46970
470604, -371, -883, -114, 86940, 39130, -38640
470624, -359, -853, -106, 67620, 14770, -31780
470644, -353, -839, -103, 49140, -8890, -28560
470664, -350, -831, -103, 29820, -31220, -27370
470684, -351, -833, -105, 10430, -53620, -24080
470704, -353, -841, -108, -10500, -74550, -19460
470724, -357, -849, -111, -32760, -92960, -14840
470744, -360, -854, -112, -52290, -112000, -7770
470764, -363, -860, -118, -68040, -132160, 1960
470784, -368, -866, -121, -83300, -150150, 11270
470804, -373, -874, -126, -110880, -179410, 27090
470824, -390, -909, -137, -120680, -193900, 37380
470844, -413, -958, -145, -124810, -210560, 49280
470864, -432, -1006, -152, -123900, -227570, 60270
470884, -447, -1037, -159, -124110, -241220, 69230
470904, -458, -1061, -168, -125230, -252000, 77350
470924, -464, -1075, -172, -121310, -263270, 84770
470944, -469, -1087, -177, -113540, -273420, 90230
470964, -476, -1105, -186, -103740, -282100, 94220
470984, -477, -1107, -188, -90020, -289870, 95620
471004, -472, -1105, -188, -76930, -292110, 91560
471024, -474, -1111, -194, -67970, -286930, 83580
471044, -468, -1110, -193, -54110, -282170, 76370
471064, -459, -1099, -192, -39690, -274540, 69930
471084, -448, -1077, -194, -30100, -259980, 62930
471104, -427, -1039, -188, -20020, -241920, 54110
471124, -402, -995, -183, -8190, -222040, 46200
471144, -383, -945, -176, 2450, -200620, 42070
471164, -371, -926, -175, 9520, -174930, 37380
471184, -368, -922, -174, 10500, -141680, 29470
471204, -358, -904, -167, 17290, -109760, 22120
471224, -349, -898, -168, 26460, -79730, 20370
471244, -342, -878, -162, 26180, -41650, 20230
471264, -333, -848, -160, 25620, -2100, 20860
471284, -327, -829, -157, 26320, 35980, 22120
471304, -333, -827, -159, 26810, 73640, 23310
471324, -342, -835, -159, 30100, 108920, 21560
471344, -354, -858, -158, 35560, 141960, 15540
471364, -378, -898, -162, 39270, 173880, 7700
471384, -398, -932, -165, 39410, 205310, -910
471404, -415, -967, -168, 41160, 232470, -11200
471424, -435, -1003, -173, 45990, 254870, -23170
471444, -450, -1031, -177, 52430, 273070, -35140
471464, -461, -1043, -177, 60760, 287350, -47670
471484, -460, -1043, -172, 74060, 295400, -60340
471504, -465, -1051, -171, 87150, 298900, -71540
471524, -475, -1067, -174, 95830, 301490, -81060
471544, -485, -1089, -171, 105420, 298970, -87710
471564, -498, -1119, -172, 120610, 287070, -91000
471584, -491, -1118, -168, 130130, 276150, -95970
471604, -473, -1086, -159, 136780, 264180, -101010
471624, -458, -1056, -154, 143920, 245980, -99120
471644, -449, -1034, -150, 146230, 225470, -90790
471664, -444, -1025, -146, 144060, 205310, -81970
471684, -437, -1020, -141, 143850, 182280, -76090
471704, -430, -1010, -136, 133910, 133350, -63630
471724, -417, -987, -130, 119420, 111790, -57680
471744, -401, -954, -123, 106190, 87290, -49700
471764, -384, -916, -114, 90580, 62790, -39760
471784, -368, -878, -112, 70980, 40950, -31710
471804, -354, -846, -105, 52710, 19390, -26600
471824, -342, -817, -101, 37240, -3710, -21420
471844, -335, -804, -99, 19880, -25130, -16450
471864, -337, -806, -101, -1960, -42490, -12250
471884, -340, -815, -104, -21280, -60900, -6650
471904, -346, -831, -106, -37170, -80430, 1750
471924, -361, -861, -112, -54880, -97720, 11340
471944, -375, -885, -117, -72800, -113330, 20230
471964, -382, -900, -122, -85260, -131040, 28910
471984, -390, -920, -127, -94850, -148190, 35210
472004, -402, -946, -132, -105140, -163100, 41930
472024, -415, -975, -140, -113610, -177940, 51590
472044, -432, -1008, -146, -118580, -193060, 63210
472064, -443, -1034, -155, -122220, -206430, 73360
472084, -454, -1051, -162, -121940, -220150, 82040
472104, -459, -1066, -164, -117250, -233660, 87640
472124, -469, -1088, -170, -110880, -244930, 90230
472144, -474, -1106, -177, -104230, -253260, 91700
472164, -477, -1115, -181, -96460, -259980, 93310
472184, -472, -1102, -183, -87640, -263620, 92750
472204, -462, -1085, -182, -77560, -263900, 89600
472224, -451, -1067, -185, -65590, -261800, 85120
472244, -438, -1045, -181, -53340, -255990, 78400
472264, -423, -1020, -182, -43470, -243810, 69230
472284, -415, -1010, -181, -34300, -228200, 61180
472304, -407, -998, -178, -23030, -211470, 55510
472324, -397, -979, -173, -7490, -196140, 51940
472344, -381, -955, -170, -700, -171780, 46760
472364, -369, -926, -168, -140, -140840, 38500
472384, -349, -883, -163, -3220, -104720, 29400
472404, -334, -850, -156, 1610, -73500, 25200
472424, -329, -834, -155, 11830, -45920, 24360
472444, -326, -829, -151, 18900, -15400, 22750
472464, -332, -833, -152, 18620, 21630, 19390
472484, -344, -849, -155, 15680, 59290, 17640
472504, -358, -871, -159, 13860, 93940, 16170
472524, -370, -891, -157, 17220, 125230, 9170
472544, -384, -919, -159, 27650, 150990, -2520
472564, -402, -956, -163, 35070, 175490, -13300
472584, -420, -986, -166, 35490, 201460, -32340
472604, -436, -1014, -172, 39270, 244580, -42070
472624, -447, -1029, -171, 48790, 256410, -51240
472644, -459, -1050, -172, 65450, 260820, -62860
472664, -457, -1048, -167, 81410, 262080, -75250
472684, -462, -1059, -166, 85960, 267610, -84980
472704, -466, -1067, -167, 91350, 266420, -88410
472724, -478, -1086, -168, 103460, 256830, -90230
472744, -480, -1097, -167, 111090, 248570, -95550
472764, -476, -1095, -163, 120750, 235970, -99470
472784, -466, -1080, -154, 130130, 216440, -94780
472804, -455, -1059, -152, 128590, 200970, -89040
472824, -436, -1018, -146, 122780, 186130, -84000
472844, -424, -990, -139, 121100, 166040, -77980
472864, -415, -977, -136, 119980, 142450, -70280
472884, -408, -968, -132, 116620, 119000, -63910
472904, -398, -948, -124, 109620, 95900, -57190
472924, -388, -931, -121, 94010, 76860, -50190
472944, -376, -902, -117, 74410, 58940, -42420
472964, -361, -867, -111, 59150, 38010, -35070
472984, -348, -837, -106, 47110, 14980, -28140
473004, -341, -825, -105, 32970, -6230, -21910
473024, -341, -822, -103, 17780, -26880, -14490
473044, -347, -831, -105, 630, -45500, -7070
473064, -355, -856, -110, -19320, -60480, -2380
473084, -364, -874, -112, -37730, -75320, 2800
473104, -369, -882, -116, -49980, -94080, 12460
473124, -373, -887, -120, -61530, -112210, 23520
473144, -373, -889, -124, -75250, -126350, 31920
473164, -379, -901, -127, -85750, -140490, 39900
473184, -393, -932, -134, -93240, -154420, 48160
473204, -416, -979, -144, -101570, -165690, 56700
473224, -436, -1026, -153, -105490, -178290, 66010
473244, -451, -1062, -157, -101500, -194390, 74760
473264, -461, -1088, -165, -98140, -207620, 80640
473284, -462, -1092, -170, -99680, -215600, 86030
473304, -462, -1082, -175, -99960, -222460, 92050
473324, -462, -1083, -179, -95690, -229040, 96600
473344, -460, -1085, -181, -85470, -235270, 97370
473364, -456, -1084, -178, -70210, -240660, 93660
473384, -451, -1085, -181, -58450, -239750, 87220
473404, -446, -1069, -182, -54040, -231280, 82810
473424, -432, -1039, -180, -48650, -221480, 81200
473444, -419, -1013, -179, -38080, -211330, 77140
473464, -406, -994, -175, -25760, -197750, 68880
473484, -394, -977, -169, -1680, -164780, 55440
473504, -387, -961, -170, -2870, -136570, 50680
473524, -376, -929, -169, -3920, -106190, 44870
473544, -352, -888, -160, 2870, -78680, 37590
473564, -345, -865, -158, 9310, -50540, 31990
473584, -337, -854, -157, 15190, -21560, 28140
473604, -336, -846, -152, 20440, 8120, 25130
473624, -345, -863, -155, 18480, 42700, 22050
473644, -357, -879, -158, 15260, 77420, 18340
473664, -365, -890, -158, 19110, 106540, 11270
473684, -374, -905, -159, 25410, 133350, 980
473704, -380, -913, -157, 32480, 156800, -7840
473724, -391, -930, -158, 37170, 178290, -14980
473744, -402, -944, -161, 34930, 203070, -24710
473764, -411, -959, -162, 37450, 223020, -36680
473784, -427, -986, -167, 49280, 233520, -47810
473804, -443, -1019, -165, 64890, 238840, -58730
473824, -454, -1044, -163, 81060, 240240, -69160
473844, -460, -1063, -164, 89040, 243880, -79730
473864, -468, -1076, -165, 88970, 248990, -87640
473884, -464, -1069, -164, 92820, 245560, -88550
473904, -462, -1059, -161, 102830, 233870, -87850
473924, -454, -1046, -157, 114310, 219030, -89320
473944, -449, -1035, -149, 125090, 202160, -91210
473964, -451, -1045, -148, 129290, 185430, -90650
473984, -453, -1057, -148, 124390, 171990, -89950
474004, -448, -1057, -145, 119980, 155470, -87010
474024, -437, -1037, -140, 118650, 133070, -79030
474044, -427, -1007, -134, 113540, 109620, -67550
474064, -406, -965, -128, 103250, 88760, -59360
474084, -385, -925, -121, 91770, 68460, -54950
474104, -375, -897, -118, 76300, 50960, -52920
474124, -363, -874, -114, 60550, 32340, -48510
474144, -360, -864, -111, 50540, 9030, -41020
474164, -358, -866, -109, 40950, -14840, -31710
474184, -359, -868, -111, 24290, -33390, -24080
474204, -360, -863, -110, 3360, -48580, -17010
474224, -356, -857, -113, -16730, -62790, -12110
474244, -355, -855, -113, -32970, -78260, -7980
474264, -357, -859, -114, -45220, -95690, -1610
474284, -362, -873, -118, -55230, -114380, 9170
474304, -371, -888, -125, -65800, -130830, 20790
474324, -385, -913, -132, -77350, -143710, 31080
474344, -396, -939, -139, -87640, -154910, 39480
474364, -405, -958, -142, -93870, -166880, 47250
474384, -411, -975, -148, -97370, -189910, 61460
474404, -420, -996, -153, -94010, -201600, 70140
474424, -432, -1021, -157, -89530, -211820, 79450
474444, -450, -1059, -165, -88060, -217350, 86240
474464, -463, -1088, -172, -84630, -221480, 88690
474484, -463, -1093, -176, -76160, -225820, 87710
474504, -452, -1079, -176, -67340, -227570, 85400
474524, -446, -1070, -177, -57820, -226940, 83930
474544, -440, -1060, -178, -45570, -225540, 84420
474564, -443, -1064, -180, -36890, -218610, 84350
474584, -441, -1062, -182, -30800, -205870, 79940
474604, -432, -1049, -181, -20860, -191310, 70210
474624, -415, -1028, -179, -9800, -174930, 60200
474644, -404, -1010, -178, -1540, -155820, 56000
474664, -392, -981, -170, 8680, -137900, 58030
474684, -386, -961, -168, 16800, -116830, 59360
474704, -378, -939, -168, 15890, -86450, 54600
474724, -357, -893, -162, 13860, -52010, 43960
474744, -338, -856, -156, 20510, -22680, 33810
474764, -330, -838, -153, 27650, 5460, 29120
474784, -333, -837, -152, 33390, 32970, 30660
474804, -345, -850, -152, 36750, 61110, 33390
474824, -361, -877, -158, 34930, 92820, 31080
474844, -372, -891, -158, 32200, 125440, 20720
474864, -375, -892, -158, 35700, 153230, 4970
474884, -375, -896, -155, 42980, 175840, -10220
474904, -383, -907, -153, 50260, 194110, -19670
474924, -400, -936, -157, 54250, 210280, -23450
474944, -429, -975, -166, 53270, 227640, -28910
474964, -436, -993, -167, 57400, 241360, -41370
474984, -439, -1008, -164, 72730, 246260, -58520
475004, -448, -1024, -162, 89810, 246400, -73710
475024, -453, -1040, -159, 101150, 245350, -82880
475044, -461, -1064, -162, 106610, 243600, -85960
475064, -476, -1089, -164, 108780, 239330, -85400
475084, -478, -1096, -167, 114170, 228410, -84280
475104, -468, -1075, -160, 120330, 215600, -88550
475124, -450, -1048, -148, 132720, 195930, -93590
475144, -450, -1049, -145, 138600, 176260, -93310
475164, -454, -1060, -148, 132160, 160300, -87360
475184, -448, -1056, -145, 123620, 143010, -80080
475204, -439, -1035, -140, 120400, 120470, -74270
475224, -419, -994, -133, 116270, 96460, -69440
475244, -399, -953, -125, 107800, 73500, -64890
475264, -380, -912, -120, 94920, 52570, -59710
475284, -368, -880, -116, 58520, 16940, -47460
475304, -364, -873, -116, 43890, -4130, -39270
475324, -361, -866, -114, 34370, -28350, -32270
475344, -359, -859, -108, 21350, -48370, -29190
475364, -359, -866, -112, 1050, -62790, -27020
475384, -361, -871, -112, -20230, -77000, -20370
475404, -359, -862, -114, -39200, -92610, -9310
475424, -356, -852, -118, -57820, -105910, -420
475444, -352, -840, -120, -69650, -122080, 7630
475464, -351, -833, -117, -73500, -141890, 16450
475484, -359, -857, -124, -80850, -156940, 24010
475504, -386, -908, -133, -92820, -166670, 32480
475524, -415, -980, -143, -99750, -178570, 45010
475544, -435, -1025, -153, -101780, -191590, 56770
475564, -443, -1042, -160, -103390, -201740, 63560
475584, -433, -1023, -159, -101430, -211890, 68600
475604, -425, -1004, -159, -97370, -220710, 73850
475624, -428, -1008, -166, -96320, -225050, 80430
475644, -441, -1035, -172, -91210, -229740, 88060
475664, -455, -1068, -177, -76020, -237370, 91840
475684, -462, -1095, -178, -59710, -240870, 87710
475704, -461, -1104, -179, -51030, -236180, 79170
475724, -450, -1087, -180, -46200, -227780, 73710
475744, -444, -1072, -183, -40040, -219100, 73780
475764, -437, -1057, -184, -30870, -209510, 75180
475784, -423, -1034, -177, -16520, -199080, 72450
475804, -408, -1005, -176, -4480, -182630, 64260
475824, -393, -976, -175, -910, -157570, 54530
475844, -374, -938, -171, 2520, -130900, 47180
475864, -366, -917, -165, 15330, -110670, 44870
475884, -362, -909, -163, 24570, -86590, 43820
475904, -355, -892, -160, 28630, -57540, 42210
475924, -353, -884, -161, 30100, -25130, 37940
475944, -352, -878, -160, 28420, 10150, 32340
475964, -346, -867, -159, 31010, 42490, 26600
475984, -351, -863, -156, 37310, 70840, 23660
476004, -353, -864, -156, 41300, 99190, 22330
476024, -362, -874, -156, 42140, 128310, 19040
476044, -376, -889, -158, 42280, 156590, 11620
476064, -390, -914, -161, 43190, 182770, 0
476084, -401, -936, -161, 48090, 204120, -14210
476104, -414, -961, -163, 57260, 220220, -27510
476124, -428, -988, -164, 65030, 233940, -37660
476144, -439, -1008, -165, 71400, 245350, -46270
476164, -454, -1029, -167, 78680, 253400, -55510
476184, -457, -1040, -166, 97790, 256270, -76230
476204, -456, -1045, -160, 111930, 248150, -82670
476224, -464, -1062, -159, 118090, 240380, -84280
476244, -473, -1079, -161, 118510, 233170, -85470
476264, -468, -1073, -161, 123480, 220220, -88060
476284, -459, -1059, -153, 130200, 203210, -90370
476304, -447, -1040, -149, 133490, 184240, -88060
476324, -441, -1032, -145, 134050, 163170, -80990
476344, -441, -1030, -142, 130550, 142380, -74130
476364, -438, -1028, -141, 120960, 124880, -71120
476384, -427, -1008, -136, 112350, 104230, -67760
476404, -411, -974, -128, 105280, 80080, -61600
476424, -390, -937, -124, 93590, 58100, -56140
476444, -375, -898, -118, 79170, 37590, -50470
476464, -364, -871, -113, 62930, 17430, -42350
476484, -361, -863, -112, 44660, -1190, -36050
476504, -360, -863, -113, 29680, -20720, -32620
476524, -363, -873, -112, 18620, -42560, -28980
476544, -367, -881, -111, 3710, -61600, -25130
476564, -368, -882, -116, -17360, -76160, -19390
476584, -363, -866, -116, -38500, -90020, -10780
476604, -359, -850, -116, -55650, -104930, -1750
476624, -354, -847, -119, -68390, -120820, 6090
476644, -362, -862, -122, -76440, -138250, 14210
476664, -371, -885, -127, -83720, -154210, 23240
476684, -385, -915, -134, -95620, -164850, 33320
476704, -406, -952, -145, -107520, -173810, 45080
476724, -426, -993, -151, -109270, -187390, 56630
476744, -441, -1041, -154, -102410, -202930, 64120
476764, -451, -1069, -160, -98560, -213570, 68250
476784, -457, -1075, -168, -100870, -219030, 73990
476804, -447, -1057, -171, -101920, -223930, 81550
476824, -443, -1039, -172, -96670, -229740, 87570
476844, -440, -1034, -174, -84630, -235830, 90720
476864, -439, -1046, -175, -68530, -240450, 89810
476884, -446, -1070, -177, -55720, -238560, 84980
476904, -452, -1084, -182, -48300, -230580, 79590
476924, -445, -1081, -184, -40880, -220850, 75880
476944, -440, -1069, -182, -30240, -210840, 72380
476964, -417, -1026, -177, -18060, -198800, 67410
476984, -400, -987, -173, -7140, -183120, 61810
477004, -385, -956, -172, -3780, -159530, 56560
477024, -368, -920, -165, -840, -133630, 51450
477044, -359, -898, -163, 13580, -114380, 47110
477064, -351, -886, -162, 21630, -88340, 42280
477084, -349, -880, -158, 31080, -27090, 31710
477104, -345, -876, -155, 30310, 7280, 29260
477124, -366, -903, -165, 25130, 44100, 28000
477144, -354, -882, -161, 32060, 72800, 24150
477164, -349, -863, -153, 42770, 98000, 18480
477184, -353, -858, -155, 41160, 129990, 11970
477204, -357, -853, -155, 40180, 159320, 4760
477224, -373, -885, -159, 42770, 184800, -5180
477244, -399, -938, -163, 46760, 207480, -16940
477264, -422, -982, -166, 58310, 221340, -27440
477284, -440, -1022, -167, 70070, 232540, -39620
477304, -450, -1037, -168, 74270, 246400, -54040
477324, -449, -1031, -164, 77630, 256480, -65730
477344, -443, -1012, -164, 83790, 259700, -73990
477364, -440, -1009, -160, 93310, 256900, -78890
477384, -444, -1013, -157, 105910, 248010, -79590
477404, -461, -1045, -159, 119490, 234010, -78890
477424, -477, -1079, -161, 124530, 224980, -86520
477444, -474, -1093, -158, 129360, 214690, -98280
477464, -466, -1096, -154, 132930, 200200, -102760
477484, -462, -1086, -153, 132650, 181580, -94290
477504, -447, -1053, -146, 129290, 160720, -79170
477524, -431, -1005, -141, 123130, 140280, -67620
477544, -410, -962, -135, 113680, 121870, -63490
477564, -392, -924, -127, 108080, 101010, -64400
477584, -381, -913, -120, 104860, 77770, -65450
477604, -383, -925, -120, 95830, 56210, -61250
477624, -388, -932, -121, 80010, 35560, -48860
477644, -385, -919, -119, 60550, 15960, -35000
477664, -374, -891, -116, 38920, -350, -29680
477684, -358, -859, -111, 22960, -19180, -29960
477704, -349, -839, -108, 12670, -42000, -28700
477724, -346, -835, -108, -1330, -62370, -24430
477744, -348, -842, -109, -21420, -77770, -17430
477764, -358, -859, -116, -41720, -92540, -5600
477784, -370, -879, -123, -58660, -108150, 7420
477804, -378, -897, -126, -71330, -123410, 15890
477824, -384, -917, -128, -78820, -138600, 19740
477844, -389, -932, -130, -84770, -152950, 23660
477864, -400, -950, -139, -95620, -163730, 33110
477884, -414, -973, -147, -108850, -172410, 48440
477904, -423, -990, -152, -113470, -184870, 64610
477924, -432, -1012, -155, -106890, -200760, 75390
477944, -441, -1040, -159, -100870, -211960, 79100
477964, -444, -1054, -163, -99680, -217350, 79800
477984, -451, -1063, -171, -92330, -227220, 87780
478004, -456, -1073, -175, -82250, -233030, 93940
478024, -456, -1076, -176, -65590, -238980, 95130
478044, -453, -1075, -174, -53060, -237160, 88130
478064, -449, -1074, -177, -49490, -225960, 78050
478084, -433, -1047, -178, -45290, -213780, 71890
478104, -419, -1016, -176, -35000, -203350, 69300
478124, -409, -994, -175, -20300, -192850, 66850
478144, -395, -973, -169, -5740, -178430, 61460
478164, -393, -974, -171, 1750, -156380, 53480
478184, -383, -959, -168, 6580, -131110, 45990
478204, -374, -935, -167, 7980, -101780, 39550
478224, -364, -917, -168, 7560, -69370, 34440
478244, -346, -877, -159, 17360, -43120, 31290
478264, -331, -842, -153, 27790, -17500, 30520
478284, -334, -836, -156, 25550, 17360, 29330
478304, -336, -831, -152, 27860, 49630, 24640
478324, -347, -856, -153, 33950, 79450, 16450
478344, -371, -901, -161, 34860, 110950, 8960
478364, -383, -925, -161, 39270, 137620, 2870
478384, -396, -944, -159, 47320, 159530, -3500
478404, -405, -962, -162, 47530, 184870, -12110
478424, -416, -974, -163, 47880, 206990, -21210
478444, -423, -980, -164, 52640, 222810, -31290
478464, -425, -979, -162, 57470, 236670, -43680
478484, -427, -980, -161, 67060, 244440, -55440
478504, -434, -991, -158, 82810, 244090, -64400
478524, -447, -1024, -159, 96040, 241290, -72100
478544, -466, -1069, -163, 98840, 243390, -81060
478564, -476, -1095, -164, 101500, 241290, -86730
478584, -474, -1093, -163, 109130, 231490, -88690
478604, -462, -1068, -158, 115850, 218960, -89950
478624, -446, -1033, -150, 122220, 203700, -90160
478644, -439, -1017, -147, 127190, 185080, -85750
478664, -442, -1028, -145, 124670, 168840, -81480
478684, -444, -1042, -143, 119700, 153020, -80500
478704, -436, -1034, -137, 119630, 131040, -77560
478724, -422, -1004, -135, 115430, 108570, -71820
478744, -402, -957, -127, 103530, 88900, -64680
478764, -378, -901, -120, 90160, 69160, -57050
478784, -366, -875, -116, 75880, 49560, -49560
478804, -360, -864, -116, 59010, 32270, -44030
478824, -359, -862, -113, 45920, 12180, -39130
478844, -361, -871, -110, 37310, -10570, -34860
478864, -367, -885, -113, 4130, -45780, -24220
478884, -369, -888, -116, -17080, -60620, -15260
478904, -364, -873, -116, -34930, -76370, -6510
478924, -357, -854, -117, -50890, -91490, -350
478944, -350, -834, -115, -62090, -107870, 5320
478964, -347, -831, -118, -70560, -125020, 13160
478984, -367, -877, -124, -80850, -139580, 22540
479004, -401, -948, -134, -88690, -154630, 34300
479024, -429, -1016, -143, -92540, -170310, 46760
479044, -448, -1059, -152, -100660, -180670, 55650
479064, -443, -1042, -157, -110320, -187530, 60900
479084, -419, -986, -154, -110740, -197890, 65870
479104, -406, -957, -156, -106680, -208180, 70980
479124, -415, -976, -163, -98140, -219240, 78190
479144, -433, -1018, -165, -84140, -230510, 84980
479164, -451, -1064, -172, -73640, -235760, 88270
479184, -464, -1094, -180, -71470, -232190, 86310
479204, -454, -1083, -181, -65310, -228480, 80850
479224, -439, -1058, -179, -52500, -226170, 73640
479244, -428, -1039, -178, -41580, -220150, 69790
479264, -423, -1028, -177, -31990, -211400, 70000
479284, -413, -1009, -176, -21770, -199640, 68460
479304, -406, -996, -176, -15330, -181020, 62580
479324, -404, -993, -178, -8750, -159320, 54670
479344, -387, -964, -172, 2450, -138810, 46900
479364, -371, -938, -165, 18690, -120890, 41440
479384, -363, -918, -162, 24430, -94080, 37730
479404, -357, -897, -161, 20930, -60690, 36680
479424, -356, -888, -162, 17360, -26320, 35280
479444, -353, -876, -160, 18480, 6020, 31220
479464, -347, -868, -155, 28350, 33600, 24290
479484, -347, -864, -153, 38360, 60270, 17990
479504, -348, -860, -153, 39620, 90860, 13650
479524, -360, -870, -156, 35000, 124040, 9030
479544, -377, -898, -159, 31570, 154770, 2380
479564, -392, -924, -161, 36190, 178150, -6090
479584, -408, -953, -160, 49000, 193130, -14910
479604, -419, -979, -160, 59780, 207340, -25970
479624, -429, -997, -161, 64050, 223300, -38920
479644, -439, -1009, -165, 63840, 238910, -51450
479664, -440, -1010, -166, 64400, 250460, -62160
479684, -442, -1015, -159, 76440, 250530, -69650
479704, -453, -1036, -157, 95760, 241780, -73290
479724, -469, -1069, -160, 109340, 231910, -73570
479744, -478, -1088, -163, 111510, 226940, -77140
479764, -465, -1078, -157, 110530, 216860, -98840
479784, -448, -1045, -154, 118300, 199010, -97440
479804, -439, -1025, -146, 126910, 174440, -83790
479824, -439, -1022, -144, 126840, 153160, -70700
479844, -440, -1021, -142, 116830, 139020, -67830
479864, -434, -1015, -142, 105840, 125020, -71960
479884, -419, -996, -136, 101220, 104300, -74130
479904, -401, -963, -128, 98980, 78190, -68180
479924, -386, -936, -123, 89180, 54600, -56560
479944, -379, -907, -119, 70700, 35910, -43610
479964, -374, -889, -117, 49910, 19600, -35070
479984, -367, -872, -119, 32970, 2450, -33740
480004, -362, -864, -114, 23100, -18130, -36890
480024, -360, -871, -112, 17290, -42140, -36750
480044, -362, -878, -110, 5040, -63280, -29120
480064, -363, -878, -114, -19810, -76510, -16100
480084, -366, -870, -118, -47180, -86240, -3640
480104, -357, -849, -122, -63000, -101290, 5600
480124, -357, -844, -119, -68040, -120540, 9590
480144, -360, -861, -121, -72030, -138390, 11690
480164, -373, -895, -126, -79240, -152950, 18060
480184, -393, -939, -136, -89880, -165340, 32340
480204, -418, -982, -147, -102130, -175280, 49700
480224, -430, -1005, -153, -106610, -187110, 63560
480244, -435, -1016, -155, -101010, -200830, 68670
480264, -432, -1023, -157, -95130, -210770, 67200
480284, -435, -1033, -161, -94640, -215460, 67690
480304, -443, -1044, -166, -92890, -221200, 76370
480324, -450, -1056, -172, -85610, -228270, 87360
480344, -456, -1073, -177, -73500, -233870, 92400
480364, -452, -1074, -174, -60200, -235130, 88270
480384, -446, -1072, -177, -50190, -230720, 79590
480404, -440, -1064, -180, -45780, -220640, 72450
480424, -431, -1046, -179, -38850, -210840, 70210
480444, -419, -1019, -175, -25200, -203070, 70140
480464, -410, -1006, -174, -12600, -190890, 67410
480484, -396, -981, -169, -4970, -171220, 60130
480504, -390, -969, -173, 1120, -147700, 50470
480524, -374, -939, -173, 3990, -120540, 42980
480544, -360, -904, -162, 14910, -98770, 40530
480564, -345, -873, -157, 27300, -76300, 38500
480584, -338, -854, -154, 28910, -44520, 34930
480604, -339, -846, -154, 26250, -9240, 32130
480624, -343, -853, -156, 28490, 21980, 29610
480644, -352, -868, -158, 32270, 52780, 24430
480664, -361, -884, -155, 47110, 107310, 12250
480684, -372, -903, -157, 47670, 135450, 8050
480704, -386, -919, -160, 43820, 164850, 1400
480724, -393, -927, -160, 45080, 188720, -8190
480744, -401, -942, -162, 48930, 208320, -18970
480764, -412, -956, -162, 57540, 221760, -29540
480784, -422, -974, -157, 68810, 230230, -40250
480804, -435, -999, -162, 73640, 240450, -51940
480824, -445, -1019, -164, 76790, 248990, -62930
480844, -447, -1025, -162, 86800, 248920, -71680
480864, -449, -1036, -160, 97930, 244580, -78120
480884, -456, -1044, -156, 109060, 235060, -78190
480904, -465, -1063, -158, 113960, 225470, -77000
480924, -467, -1065, -159, 113680, 217980, -81760
480944, -456, -1054, -155, 115710, 208250, -91140
480964, -446, -1038, -149, 124250, 188860, -92820
480984, -441, -1031, -145, 129290, 166530, -85820
481004, -440, -1034, -140, 125650, 147000, -76580
481024, -438, -1027, -138, 116130, 130060, -70210
481044, -426, -1003, -138, 104930, 112490, -66780
481064, -409, -969, -133, 94850, 93380, -66150
481084, -386, -926, -124, 89880, 69300, -63490
481104, -373, -896, -117, 83650, 44660, -56770
481124, -368, -881, -115, 68670, 24430, -47320
481144, -370, -882, -117, 48720, 7280, -38990
481164, -369, -878, -115, 31150, -10570, -34230
481184, -364, -875, -114, 16100, -28910, -33460
481204, -360, -866, -113, 2170, -48160, -32410
481224, -357, -856, -113, -11270, -68530, -26460
481244, -359, -862, -114, -26110, -87850, -17080
481264, -369, -878, -119, -43330, -103880, -8260
481284, -376, -894, -124, -59570, -118860, 770
481304, -383, -905, -128, -72590, -133770, 9030
481324, -386, -916, -132, -83090, -147490, 15050
481344, -389, -926, -135, -89600, -161350, 20860
481364, -394, -937, -139, -93800, -175490, 30590
481384, -405, -955, -148, -101010, -186410, 43610
481404, -419, -983, -154, -107450, -195160, 56070
481424, -431, -1010, -157, -103670, -206780, 64260
481444, -437, -1035, -165, -94990, -218050, 68460
481464, -445, -1051, -171, -91980, -223720, 72030
481484, -445, -1056, -171, -89810, -227080, 77070
481504, -450, -1066, -176, -80990, -232400, 82740
481524, -456, -1079, -179, -70770, -235690, 86520
481544, -454, -1082, -180, -60200, -235760, 87150
481564, -445, -1071, -178, -37800, -224840, 74200
481584, -435, -1055, -179, -32690, -211400, 68250
481604, -424, -1033, -180, -23030, -199220, 66080
481624, -411, -1013, -178, -9450, -185780, 62720
481644, -406, -1004, -175, 2730, -168210, 59150
481664, -393, -976, -170, 10640, -145600, 56420
481684, -380, -947, -170, 12880, -116410, 50260
481704, -367, -920, -168, 17640, -86870, 41160
481724, -353, -893, -163, 28000, -60270, 33950
481744, -343, -874, -157, 37380, -33600, 31290
481764, -341, -865, -156, 37030, 630, 29610
481784, -338, -847, -154, 33600, 37100, 28140
481804, -341, -843, -156, 35070, 69090, 27090
481824, -353, -856, -157, 39130, 98700, 23380
481844, -363, -876, -158, 47670, 124950, 14490
481864, -375, -899, -156, 55860, 150150, 2940
481884, -390, -926, -158, 55090, 178150, -6790
481904, -398, -936, -161, 52640, 203560, -14350
481924, -407, -945, -161, 54810, 222950, -22540
481944, -418, -961, -163, 61180, 237090, -32690
481964, -429, -983, -162, 73990, 243180, -42490
481984, -442, -1004, -161, 85330, 247100, -52920
482004, -446, -1015, -162, 91210, 252700, -65450
482024, -449, -1032, -163, 98140, 253960, -75880
482044, -452, -1038, -157, 107170, 248570, -80080
482064, -463, -1061, -162, 116620, 237020, -76090
482084, -470, -1070, -161, 116620, 229390, -75460
482104, -461, -1063, -155, 121730, 216930, -79940
482124, -458, -1061, -150, 129360, 199640, -84910
482144, -453, -1058, -149, 131040, 182000, -85120
482164, -439, -1032, -144, 128450, 163520, -81130
482184, -429, -1005, -139, 124670, 143150, -73920
482204, -416, -982, -137, 113820, 125650, -67690
482224, -410, -963, -133, 104160, 105770, -62510
482244, -397, -943, -126, 101150, 80150, -58310
482264, -392, -938, -122, 95130, 56210, -57120
482284, -389, -933, -121, 79870, 37170, -55230
482304, -385, -920, -120, 61810, 17710, -48790
482324, -380, -906, -119, 44170, -3010, -40460
482344, -368, -879, -115, 25690, -22050, -35980
482364, -355, -846, -110, 10850, -42980, -32760
482384, -345, -820, -109, -2380, -64540, -28350
482404, -340, -815, -110, -20440, -81690, -23870
482424, -347, -828, -112, -40600, -95900, -19110
482444, -362, -858, -120, -55650, -112980, -10570
482464, -383, -907, -128, -78890, -147350, 10220
482484, -399, -939, -133, -88830, -161420, 17500
482504, -400, -946, -135, -94710, -175700, 24150
482524, -397, -938, -139, -103180, -186200, 31990
482544, -396, -931, -145, -112420, -194250, 42490
482564, -399, -935, -149, -112630, -205310, 54390
482584, -412, -966, -153, -104720, -218260, 64120
482604, -432, -1013, -162, -97650, -227780, 70560
482624, -454, -1064, -170, -91910, -234150, 74620
482644, -469, -1107, -176, -85820, -238560, 75530
482664, -474, -1125, -180, -80570, -240100, 75390
482684, -462, -1097, -183, -74550, -240590, 77770
482704, -442, -1048, -181, -63910, -241430, 80500
482724, -424, -1010, -177, -51590, -238140, 78190
482744, -418, -1004, -177, -39340, -230650, 72520
482764, -417, -1015, -179, -27370, -219800, 65870
482784, -424, -1038, -182, -17150, -204400, 58730
482804, -424, -1046, -183, -7630, -185850, 52780
482824, -414, -1028, -182, 2800, -166110, 49000
482844, -403, -999, -178, 12040, -142730, 46130
482864, -374, -941, -169, 15120, -112630, 41370
482884, -359, -902, -167, 21000, -84420, 38080
482904, -345, -872, -162, 27650, -55650, 35350
482924, -339, -852, -157, 34440, -25760, 32760
482944, -335, -845, -155, 38990, 6860, 29610
482964, -337, -843, -155, 41930, 40110, 27160
482984, -347, -853, -158, 43820, 73500, 24500
483004, -356, -869, -161, 44590, 107030, 19600
483024, -368, -890, -158, 49210, 136500, 12670
483044, -387, -918, -162, 55370, 162050, 6510
483064, -396, -931, -160, 57610, 187320, 0
483084, -402, -932, -162, 59850, 210490, -8960
483104, -412, -944, -163, 62020, 231280, -20440
483124, -423, -965, -165, 66430, 247310, -32480
483144, -442, -1011, -166, 77280, 255570, -44240
483164, -455, -1039, -168, 88690, 260540, -56000
483184, -458, -1049, -167, 97370, 264110, -66430
483204, -449, -1031, -161, 105420, 263270, -73570
483224, -450, -1023, -159, 113190, 257390, -75180
483244, -454, -1030, -157, 117390, 249060, -73220
483264, -460, -1048, -159, 120680, 239540, -75950
483284, -464, -1066, -152, 131250, 222740, -80430
483304, -462, -1076, -151, 140630, 203490, -84210
483324, -453, -1059, -147, 140070, 186760, -83930
483344, -438, -1029, -144, 132440, 170380, -77770
483364, -428, -997, -140, 114030, 131810, -61460
483384, -416, -975, -132, 111860, 105980, -56700
483404, -404, -952, -128, 109620, 79100, -53620
483424, -394, -935, -121, 96320, 59500, -53270
483444, -384, -920, -119, 75950, 43260, -51100
483464, -378, -906, -116, 57400, 24010, -44590
483484, -373, -891, -116, 41790, 1610, -35700
483504, -369, -877, -116, 27580, -20930, -29960
483524, -360, -857, -110, 15050, -43470, -26950
483544, -351, -837, -106, 140, -63490, -25130
483564, -344, -825, -108, -22120, -77910, -22680
483584, -350, -837, -113, -45710, -90650, -17780
483604, -363, -863, -119, -59360, -109690, -8750
483624, -377, -892, -122, -63840, -133070, 1820
483644, -385, -913, -125, -73150, -150780, 10430
483664, -389, -917, -130, -89950, -161350, 17500
483684, -386, -909, -132, -104230, -171150, 25060
483704, -391, -919, -140, -112630, -181720, 32200
483724, -406, -953, -147, -114940, -194250, 41090
483744, -427, -1000, -154, -108920, -210980, 52640
483764, -443, -1041, -157, -101220, -225750, 62370
483784, -455, -1068, -163, -102760, -230720, 67340
483804, -458, -1070, -172, -107800, -232050, 71960
483824, -448, -1052, -175, -103460, -238070, 77280
483844, -439, -1035, -175, -91840, -245000, 79940
483864, -436, -1028, -177, -78120, -248850, 79940
483884, -435, -1033, -175, -62090, -251090, 79870
483904, -444, -1057, -180, -51380, -245700, 77070
483924, -451, -1077, -185, -46900, -232750, 71190
483944, -442, -1071, -184, -37590, -220220, 64190
483964, -424, -1043, -180, -22190, -209650, 57120
483984, -409, -1010, -179, -12180, -192780, 51940
484004, -386, -961, -172, -7700, -169540, 48650
484024, -377, -939, -172, 350, -146020, 46130
484044, -373, -924, -173, 3570, -115710, 42000
484064, -359, -904, -164, 13860, -89390, 37240
484084, -354, -898, -163, 28070, -63770, 30310
484104, -352, -887, -162, 30800, -29050, 25060
484124, -342, -867, -157, 32620, 5600, 23940
484144, -345, -858, -160, 34440, 38990, 25130
484164, -347, -854, -160, 31850, 76020, 24080
484184, -351, -854, -154, 37170, 107730, 19320
484204, -366, -878, -157, 50120, 132090, 13790
484224, -379, -896, -159, 55440, 159180, 7770
484244, -388, -911, -159, 57750, 213360, -12530
484264, -404, -939, -165, 60900, 234150, -22540
484284, -423, -969, -168, 70560, 246400, -30450
484304, -436, -999, -167, 84770, 252350, -40110
484324, -443, -1011, -164, 93170, 260400, -52780
484344, -451, -1023, -165, 97300, 266910, -63000
484364, -439, -1000, -159, 105210, 265370, -68460
484384, -437, -994, -157, 115220, 257250, -69090
484404, -448, -1015, -159, 117670, 251930, -72380
484424, -461, -1049, -160, 128730, 236810, -73220
484444, -476, -1085, -160, 139230, 219310, -76300
484464, -475, -1098, -157, 140770, 206010, -82740
484484, -450, -1056, -148, 136710, 192220, -84140
484504, -433, -1012, -143, 129710, 174090, -73990
484524, -424, -988, -142, 120050, 155190, -61600
484544, -416, -971, -135, 119560, 129990, -53690
484564, -411, -968, -129, 120610, 103110, -50400
484584, -410, -970, -127, 108990, 83510, -51380
484604, -399, -953, -124, 90790, 66780, -52710
484624, -386, -927, -119, 74480, 46550, -48440
484644, -376, -902, -117, 56560, 25620, -39130
484664, -367, -874, -115, 39060, 3570, -28700
484684, -359, -849, -109, 26880, -20860, -21140
484704, -351, -836, -107, 14910, -42840, -21070
484724, -355, -842, -108, -3150, -59010, -24640
484744, -359, -860, -112, -23380, -74410, -23870
484764, -368, -882, -119, -40810, -91840, -16870
484784, -377, -897, -121, -56910, -108920, -6930
484804, -383, -904, -125, -70280, -125860, 3500
484824, -382, -902, -126, -78610, -144130, 13720
484844, -383, -906, -130, -88830, -157290, 18830
484864, -388, -915, -137, -104370, -163940, 21490
484884, -397, -930, -142, -115010, -173390, 29050
484904, -405, -947, -149, -114660, -189280, 41860
484924, -417, -976, -153, -110180, -204680, 52990
484944, -430, -1009, -156, -105770, -216440, 60410
484964, -441, -1039, -163, -102550, -224840, 65870
484984, -455, -1065, -172, -104090, -228130, 70490
485004, -457, -1069, -177, -106260, -228620, 73990
485024, -447, -1055, -176, -95900, -234640, 75530
485044, -434, -1037, -174, -76790, -242550, 74760
485064, -432, -1029, -175, -65030, -242480, 74130
485084, -433, -1033, -179, -60830, -234500, 73920
485104, -437, -1047, -182, -54110, -224770, 71330
485124, -437, -1057, -184, -43610, -213570, 65170
485144, -425, -1043, -178, -15540, -188650, 51520
485164, -401, -997, -173, -9800, -166530, 46060
485184, -383, -952, -171, -7840, -140070, 44660
485204, -373, -928, -170, -5390, -112140, 44450
485224, -364, -901, -168, 6440, -88410, 41160
485244, -347, -873, -160, 21700, -64330, 33390
485264, -347, -872, -158, 27440, -32480, 24990
485284, -349, -882, -158, 30030, 350, 20300
485304, -352, -886, -156, 30520, 33460, 19880
485324, -368, -903, -164, 26320, 69580, 19740
485344, -365, -896, -161, 30030, 99960, 16800
485364, -364, -886, -155, 44590, 120890, 11830
485384, -371, -891, -158, 48510, 147700, 3850
485404, -377, -896, -156, 48020, 175350, -6160
485424, -389, -916, -158, 51170, 197400, -15610
485444, -404, -941, -164, 51730, 218890, -24990
485464, -416, -959, -164, 60900, 231700, -33530
485484, -428, -984, -162, 78750, 235060, -41440
485504, -440, -1008, -164, 88900, 241150, -51450
485524, -444, -1014, -160, 92820, 248150, -62300
485544, -443, -1012, -159, 99400, 248080, -69720
485564, -447, -1021, -159, 104160, 244790, -74060
485584, -455, -1043, -160, 109270, 238140, -76090
485604, -465, -1064, -157, 118720, 224630, -75880
485624, -465, -1072, -156, 126980, 208810, -76230
485644, -455, -1056, -151, 128100, 195650, -78960
485664, -436, -1019, -144, 125440, 181790, -79730
485684, -421, -990, -142, 120890, 165410, -75110
485704, -415, -975, -134, 116270, 146020, -67270
485724, -414, -974, -132, 113400, 123620, -58870
485744, -418, -988, -130, 107660, 101570, -52430
485764, -414, -979, -128, 96600, 81900, -50050
485784, -398, -955, -122, 84210, 62370, -49700
485804, -382, -917, -120, 68810, 43400, -47880
485824, -364, -874, -114, 51100, 24430, -41930
485844, -354, -849, -110, 36610, 2380, -31710
485864, -353, -837, -109, 23660, -19740, -22820
485884, -353, -843, -111, 8190, -38150, -19320
485904, -362, -863, -115, -9030, -53900, -18830
485924, -369, -884, -115, -24010, -70630, -17220
485944, -378, -908, -122, -38290, -87150, -12810
485964, -382, -913, -124, -54670, -101780, -4550
485984, -381, -903, -124, -68250, -117670, 7420
486004, -377, -888, -126, -77910, -133980, 19320
486024, -374, -883, -131, -90230, -144550, 25620
486044, -379, -898, -135, -105070, -165060, 35910
486064, -396, -935, -140, -101570, -180320, 45500
486084, -419, -988, -149, -99330, -192920, 56070
486104, -440, -1037, -156, -98840, -202370, 65100
486124, -451, -1060, -163, -98700, -209300, 70560
486144, -451, -1059, -167, -99610, -212940, 72450
486164, -436, -1026, -168, -97300, -215880, 72520
486184, -424, -1003, -166, -87150, -220570, 72520
486204, -421, -1003, -169, -72310, -225470, 73780
486224, -432, -1030, -172, -60200, -225400, 74620
486244, -443, -1058, -176, -51940, -219660, 73570
486264, -444, -1065, -177, -46620, -208600, 68810
486284, -432, -1043, -177, -41160, -194460, 60620
486304, -405, -997, -173, -30730, -181650, 54250
486324, -387, -959, -170, -20160, -167020, 51730
486344, -376, -937, -166, -10780, -149170, 51660
486364, -380, -935, -167, -2240, -127120, 49490
486384, -376, -935, -168, 2310, -99400, 43820
486404, -366, -922, -164, 11830, -73220, 35210
486424, -365, -919, -164, 18900, -44310, 26810
486444, -360, -908, -162, 19040, -10640, 21770
486464, -351, -883, -158, 24640, 18410, 20930
486484, -351, -873, -158, 29820, 46760, 22120
486504, -354, -868, -158, 30100, 78120, 21560
486524, -359, -869, -157, 35210, 105350, 16800
486544, -372, -892, -158, 42490, 130340, 7490
486564, -382, -913, -159, 46830, 155470, -3570
486584, -394, -939, -158, 52920, 176400, -13230
486604, -407, -959, -159, 58520, 194600, -21630
486624, -415, -970, -162, 62230, 210840, -28560
486644, -420, -969, -161, 66150, 223440, -34370
486664, -422, -967, -160, 72870, 231560, -41790
486684, -421, -969, -157, 84000, 234570, -51660
486704, -426, -983, -152, 97440, 232330, -60760
486724, -441, -1017, -156, 106050, 228550, -65730
486744, -457, -1045, -158, 108850, 224770, -68250
486764, -464, -1066, -158, 110250, 219380, -70980
486784, -460, -1069, -157, 110530, 212030, -76020
486804, -453, -1053, -149, 115920, 197120, -77490
486824, -442, -1031, -143, 123690, 175840, -72870
486844, -427, -996, -139, 121730, 158690, -68460
486864, -412, -967, -136, 111230, 146300, -66780
486884, -405, -953, -134, 103320, 130200, -63840
486904, -401, -949, -131, 99820, 109130, -59710
486924, -394, -941, -125, 97370, 86380, -56490
486944, -392, -934, -121, 76440, 46060, -45500
486964, -390, -930, -123, 56560, 30380, -40180
486984, -384, -915, -122, 40530, 12390, -37380
487004, -374, -895, -118, 29610, -9170, -34790
487024, -368, -882, -115, 17570, -30450, -30590
487044, -363, -871, -113, 1960, -49770, -24220
487064, -359, -859, -114, -16590, -65590, -18620
487084, -357, -856, -115, -35630, -79800, -13650
487104, -363, -867, -120, -50120, -95900, -8400
487124, -372, -885, -121, -58590, -114800, -1050
487144, -380, -908, -125, -67550, -131040, 5810
487164, -389, -923, -131, -79520, -143220, 13650
487184, -390, -924, -134, -90440, -154140, 22750
487204, -389, -920, -137, -97860, -164850, 31500
487224, -393, -926, -143, -102900, -174440, 38570
487244, -401, -945, -147, -102270, -185640, 45920
487264, -412, -976, -151, -97370, -197120, 53060
487284, -431, -1019, -159, -94010, -205030, 59150
487304, -444, -1050, -164, -92120, -210000, 64680
487324, -448, -1059, -169, -88970, -213920, 69860
487344, -443, -1049, -169, -84280, -216020, 72100
487364, -431, -1023, -170, -76650, -216510, 71890
487384, -421, -1004, -169, -66220, -215740, 70350
487404, -419, -1009, -171, -56140, -211610, 67970
487424, -422, -1020, -172, -45850, -204890, 65590
487444, -425, -1031, -173, -35840, -195370, 63280
487464, -418, -1026, -174, -27720, -182070, 59920
487484, -405, -1000, -173, -19880, -165550, 55160
487504, -396, -978, -171, -11620, -146790, 50820
487524, -375, -936, -162, -4830, -124530, 47040
487544, -366, -917, -164, 5810, -103250, 43820
487564, -367, -912, -166, 6720, -72450, 38920
487584, -354, -890, -159, 13020, -44590, 34790
487604, -352, -884, -155, 30310, -24990, 31990
487624, -362, -900, -162, 32620, 5600, 28490
487644, -361, -896, -157, 29120, 40110, 24570
487664, -372, -912, -161, 35490, 66640, 20720
487684, -381, -924, -161, 38150, 94430, 16870
487704, -375, -909, -156, 43400, 118790, 12530
487724, -376, -900, -156, 50750, 139860, 6300
487744, -376, -894, -155, 48370, 166180, -2660
487764, -382, -897, -154, 49910, 186830, -10990
487784, -397, -923, -160, 57120, 201040, -18690
487804, -409, -952, -160, 63420, 214620, -28770
487824, -427, -983, -158, 76930, 220360, -38150
487844, -441, -1017, -159, 94220, 229040, -55160
487864, -443, -1024, -159, 96320, 232260, -63140
487884, -439, -1011, -155, 102200, 227290, -65170
487904, -437, -1000, -155, 105560, 220290, -65730
487924, -433, -993, -153, 109410, 211400, -68600
487944, -429, -987, -147, 118650, 196070, -70070
487964, -434, -1008, -147, 123620, 180110, -69300
487984, -441, -1029, -148, 121310, 166250, -68880
488004, -445, -1041, -142, 118230, 150570, -68040
488024, -443, -1045, -140, 112910, 133000, -64820
488044, -437, -1028, -138, 103740, 114870, -59640
488064, -413, -980, -131, 95830, 93870, -53200
488084, -393, -937, -125, 85400, 74200, -48790
488104, -380, -903, -121, 71190, 56630, -45710
488124, -374, -888, -120, 58450, 37800, -42350
488144, -374, -889, -119, 49350, 16170, -39200
488164, -376, -902, -116, 39130, -4550, -36750
488184, -384, -921, -118, 24990, -23730, -31990
488204, -383, -918, -118, 7700, -41230, -25620
488224, -375, -896, -117, -12040, -56280, -20510
488244, -367, -872, -117, -31570, -70000, -17990
488264, -356, -846, -116, -44170, -87920, -13860
488284, -350, -836, -115, -51520, -108220, -7980
488304, -358, -856, -119, -62300, -124250, -1890
488324, -376, -893, -128, -75250, -137550, 6650
488344, -395, -935, -133, -84140, -152110, 18340
488364, -415, -975, -143, -92470, -164220, 27440
488384, -422, -994, -149, -99890, -173880, 31990
488404, -412, -974, -145, -100030, -186270, 35630
488424, -404, -959, -148, -99750, -196980, 41230
488444, -406, -959, -154, -105770, -201110, 49700
488464, -414, -972, -158, -105350, -207410, 60690
488484, -428, -1004, -164, -94570, -216580, 68040
488504, -446, -1048, -168, -83370, -221970, 68390
488524, -449, -1073, -172, -74060, -222880, 63980
488544, -442, -1062, -172, -65870, -221690, 59570
488564, -431, -1032, -174, -64260, -214760, 58590
488584, -415, -993, -174, -61740, -207130, 62650
488604, -402, -966, -168, -49490, -202440, 64610
488624, -395, -967, -170, -35350, -194040, 59150
488644, -393, -969, -169, -25270, -179130, 50610
488664, -394, -981, -172, -16030, -161630, 44450
488684, -396, -982, -174, -10360, -139720, 40740
488704, -378, -951, -169, -7280, -113260, 37660
488724, -360, -908, -159, 5530, -91210, 34790
488744, -357, -890, -162, 15190, -33460, 30100
488764, -346, -865, -156, 21980, -6090, 28700
488784, -344, -861, -156, 31990, 19880, 24990
488804, -360, -890, -159, 34370, 51100, 20300
488824, -370, -910, -161, 39060, 79240, 16660
488844, -381, -929, -161, 47810, 102760, 13300
488864, -389, -940, -161, 48300, 131040, 7350
488884, -384, -925, -157, 48510, 157010, 1120
488904, -386, -916, -157, 52920, 176610, -4480
488924, -385, -905, -157, 55300, 195650, -12110
488944, -387, -904, -154, 62370, 209160, -20020
488964, -396, -915, -155, 72590, 217630, -28280
488984, -408, -941, -154, 82040, 224770, -38780
489004, -425, -978, -159, 92120, 228060, -49070
489024, -438, -1016, -156, 101500, 227010, -57050
489044, -451, -1051, -158, 105350, 225820, -59850
489064, -462, -1071, -158, 100940, 225540, -58380
489084, -457, -1054, -160, 98490, 220850, -56630
489104, -439, -1011, -153, 104510, 208250, -58310
489124, -417, -967, -144, 113190, 192430, -62510
489144, -407, -949, -139, 116270, 178010, -64820
489164, -414, -968, -140, 112840, 164220, -62020
489184, -429, -1004, -143, 107730, 148680, -57680
489204, -432, -1020, -140, 104160, 130550, -55510
489224, -423, -1002, -133, 100660, 110390, -53970
489244, -406, -964, -128, 93100, 89810, -49490
489264, -391, -926, -124, 78540, 71960, -44240
489284, -376, -899, -121, 61460, 56140, -41650
489304, -370, -884, -120, 48860, 37240, -39060
489324, -372, -885, -118, 39830, 14980, -34370
489344, -376, -896, -120, 30240, -7000, -30240
489364, -377, -903, -117, 19040, -27230, -27720
489384, -378, -904, -118, 3430, -44520, -24500
489404, -374, -893, -121, -17990, -58170, -20090
489424, -366, -874, -121, -37310, -72030, -16030
489444, -363, -862, -120, -48020, -90020, -11970
489464, -364, -867, -122, -55580, -109270, -6650
489484, -373, -885, -127, -65030, -126350, 980
489504, -383, -910, -130, -75250, -140490, 8400
489524, -398, -941, -139, -85750, -151760, 14770
489544, -409, -964, -144, -94850, -161840, 21210
489564, -412, -971, -148, -98560, -174300, 29260
489584, -410, -971, -151, -97370, -187460, 35700
489604, -412, -972, -152, -97370, -196770, 40250
489624, -411, -968, -155, -98910, -207760, 53340
489644, -418, -978, -161, -95270, -211470, 58380
489664, -424, -998, -166, -85470, -215810, 59710
489684, -434, -1023, -168, -71960, -219940, 58800
489704, -440, -1052, -172, -62370, -219100, 56700
489724, -440, -1056, -173, -59080, -212170, 54880
489744, -434, -1042, -175, -56420, -203280, 55160
489764, -420, -1011, -175, -49700, -194250, 54810
489784, -403, -974, -170, -38920, -184170, 51100
489804, -388, -954, -168, -27650, -171220, 45500
489824, -380, -941, -167, -17780, -154980, 41370
489844, -374, -935, -166, -10360, -135170, 39550
489864, -387, -958, -172, -6930, -109900, 37520
489884, -389, -968, -171, 3150, -86520, 32900
489904, -370, -938, -161, 16660, -63420, 27370
489924, -371, -930, -165, 18270, -32130, 24360
489944, -360, -896, -163, 14140, 2380, 24780
489964, -346, -865, -156, 27090, 24220, 25340
489984, -348, -862, -157, 34860, 50610, 22260
490004, -356, -875, -157, 36050, 80920, 17570
490024, -364, -886, -155, 44520, 104020, 12530
490044, -380, -916, -160, 48930, 128590, 5110
490064, -387, -931, -160, 47950, 155400, -3640
490084, -389, -927, -156, 54810, 173040, -9100
490104, -399, -937, -160, 59780, 188510, -13090
490124, -404, -939, -158, 62860, 203210, -19320
490144, -409, -949, -156, 72100, 211120, -26600
490164, -419, -970, -158, 78610, 218120, -35630
490184, -427, -988, -157, 84630, 222250, -45080
490204, -429, -995, -149, 94990, 219310, -51800
490224, -433, -1004, -153, 99120, 216930, -55860
490244, -437, -1009, -152, 94290, 217560, -58940
490264, -433, -1000, -149, 95900, 210490, -59850
490284, -428, -994, -146, 104510, 195510, -60060
490304, -427, -997, -143, 108640, 181580, -61810
490324, -423, -993, -138, 109760, 167090, -62860
490344, -425, -1000, -138, 108920, 150780, -61320
490364, -424, -1004, -138, 99960, 137900, -59990
490384, -416, -986, -133, 90860, 122850, -57330
490404, -401, -955, -126, 87640, 100940, -51240
490424, -385, -917, -123, 80780, 80220, -45850
490444, -372, -887, -119, 67270, 63700, -43470
490464, -366, -875, -115, 55440, 45850, -41090
490484, -373, -893, -118, 44730, 27090, -38430
490504, -384, -923, -120, 32340, 9030, -35490
490524, -392, -942, -120, 14000, -33600, -24150
490544, -390, -936, -120, -3780, -48160, -21420
490564, -381, -910, -119, -25060, -59640, -19390
490584, -366, -873, -116, -40180, -74900, -15050
490604, -356, -853, -118, -51800, -91140, -10360
490624, -356, -853, -120, -61040, -107800, -4340
490644, -364, -872, -124, -65730, -126280, 4270
490664, -378, -902, -128, -71190, -141890, 12810
490684, -390, -931, -134, -82040, -150920, 18760
490704, -403, -956, -139, -93100, -157850, 25410
490724, -410, -966, -148, -98070, -168350, 34160
490744, -406, -954, -147, -95550, -180250, 38500
490764, -393, -937, -148, -92120, -188370, 38290
490784, -393, -940, -150, -89110, -194320, 41300
490804, -406, -963, -156, -86520, -199990, 51520
490824, -422, -998, -164, -83930, -202300, 59990
490844, -433, -1025, -167, -77490, -203000, 61390
490864, -437, -1042, -167, -65730, -204120, 57400
490884, -434, -1044, -168, -55580, -202720, 52990
490904, -425, -1032, -171, -52360, -194670, 49700
490924, -416, -1010, -170, -49980, -184450, 49770
490944, -406, -986, -168, -43400, -175070, 51800
490964, -399, -974, -170, -32970, -165200, 51450
490984, -390, -960, -168, -22190, -150990, 45430
491004, -382, -954, -166, -11900, -133840, 38080
491024, -388, -966, -170, -6860, -112000, 33740
491044, -383, -963, -169, -3850, -87500, 33180
491064, -376, -943, -164, 5180, -65310, 32550
491084, -368, -924, -162, 14840, -41580, 30380
491104, -356, -894, -158, 19110, -13510, 27510
491124, -355, -883, -159, 23380, 14700, 24010
491144, -353, -878, -158, 26320, 43610, 20160
491164, -363, -890, -157, 32550, 68670, 18200
491184, -368, -900, -159, 41860, 90720, 15960
491204, -375, -909, -158, 47880, 113470, 12250
491224, -381, -909, -158, 49140, 137900, 6300
491244, -381, -907, -157, 50120, 160580, -1750
491264, -385, -912, -155, 54670, 178290, -10640
491284, -392, -923, -154, 62650, 190400, -17290
491304, -402, -932, -154, 70980, 198940, -21490
491324, -411, -950, -155, 76370, 206780, -26600
491344, -419, -967, -152, 81550, 212380, -34440
491364, -427, -991, -151, 90790, 211470, -42280
491384, -432, -1006, -150, 97650, 208810, -49140
491404, -429, -1002, -148, 99120, 206500, -55160
491424, -426, -992, -146, 96110, 194880, -55020
491444, -422, -981, -146, 97930, 182070, -52080
491464, -420, -980, -142, 104580, 164640, -51380
491484, -427, -998, -138, 107940, 147980, -53970
491504, -430, -1013, -138, 103880, 133630, -56420
491524, -426, -1009, -135, 93380, 120960, -56140
491544, -413, -985, -132, 81760, 106540, -52920
491564, -400, -955, -127, 74410, 86660, -45570
491584, -388, -923, -122, 67550, 65030, -37170
491604, -378, -899, -120, 55580, 47530, -32900
491624, -368, -877, -118, 42280, 32060, -33670
491644, -363, -867, -114, 32620, 14280, -35140
491664, -373, -895, -119, 23590, -4690, -34440
491684, -394, -942, -122, 14770, -25340, -29470
491704, -406, -975, -124, 6020, -46410, -21980
491724, -408, -975, -125, -10220, -61320, -17360
491744, -393, -938, -126, -32410, -70980, -15610
491764, -367, -874, -121, -49280, -83370, -13300
491784, -349, -832, -119, -59920, -98280, -10780
491804, -343, -824, -119, -67060, -113890, -7070
491824, -356, -851, -125, -69090, -132090, 490
491844, -380, -905, -131, -70770, -149100, 10920
491864, -409, -970, -140, -78890, -159040, 19250
491884, -431, -1021, -152, -89320, -164570, 23380
491904, -430, -1019, -152, -92960, -172830, 25760
491924, -414, -984, -152, -92190, -182560, 28420
491944, -398, -945, -153, -95060, -187810, 33390
491964, -387, -922, -153, -95480, -192150, 40460
491984, -392, -933, -157, -88550, -198450, 47320
492004, -405, -963, -164, -80920, -201740, 51310
492024, -418, -996, -168, -74060, -200620, 50820
492044, -426, -1025, -167, -64050, -198170, 46480
492064, -429, -1039, -168, -53550, -194110, 41930
492084, -422, -1027, -168, -47670, -186970, 42280
492104, -401, -978, -167, -44800, -177240, 46550
492124, -383, -937, -166, -41930, -164010, 47740
492144, -372, -916, -165, -37030, -147770, 43610
492164, -371, -917, -161, -24150, -134610, 38990
492184, -375, -940, -164, -8330, -121450, 35210
492204, -389, -973, -168, 700, -101080, 31080
492224, -389, -978, -168, 4060, -75390, 27580
492244, -382, -957, -164, 10080, -51170, 26390
492264, -374, -932, -168, 14490, -25340, 26180
492284, -356, -892, -159, 15120, 4340, 24430
492304, -347, -868, -155, 24360, 28210, 21490
492324, -352, -869, -158, 36400, 79170, 16170
492344, -358, -878, -157, 42700, 102690, 13860
492364, -370, -897, -156, 51730, 122500, 10640
492384, -387, -929, -160, 57260, 142590, 5740
492404, -398, -949, -162, 61460, 161840, -2100
492424, -402, -953, -159, 64610, 179970, -11900
492444, -398, -943, -156, 67760, 194180, -18900
492464, -396, -928, -155, 72240, 202440, -20230
492484, -397, -923, -153, 77630, 206850, -21070
492504, -401, -928, -150, 84770, 208390, -26320
492524, -414, -954, -150, 92610, 207130, -34020
492544, -429, -995, -153, 99330, 203280, -41370
492564, -437, -1023, -152, 101850, 199990, -48860
492584, -439, -1030, -152, 100030, 196560, -52920
492604, -431, -1010, -147, 96460, 189350, -49910
492624, -417, -973, -144, 94990, 176890, -43470
492644, -403, -940, -137, 95900, 162050, -41370
492664, -395, -927, -132, 97160, 146790, -43330
492684, -401, -938, -131, 95970, 131320, -45640
492704, -407, -962, -130, 90720, 116130, -46270
492724, -408, -976, -131, 83720, 100030, -45220
492744, -408, -975, -127, 75740, 82320, -41440
492764, -406, -963, -127, 64960, 63910, -34580
492784, -395, -938, -124, 51450, 45990, -29050
492804, -384, -915, -121, 38850, 28490, -29470
492824, -375, -901, -117, 28420, 10500, -32760
492844, -372, -892, -117, 17080, -7980, -32620
492864, -371, -889, -118, 3220, -25900, -27580
492884, -373, -891, -118, -10290, -43540, -21840
492904, -375, -895, -121, -21000, -61880, -17220
492924, -379, -901, -123, -31710, -79240, -13650
492944, -379, -903, -125, -44940, -93380, -11340
492964, -379, -905, -128, -58380, -105350, -10290
492984, -377, -897, -128, -67340, -118720, -7630
493004, -379, -902, -132, -73080, -133210, -910
493024, -384, -912, -136, -78890, -146230, 7490
493044, -390, -921, -139, -83090, -157430, 14560
493064, -398, -945, -144, -86660, -166040, 19320
493084, -409, -968, -151, -91140, -171850, 22540
493104, -414, -984, -154, -91490, -178640, 26180
493124, -415, -992, -155, -87080, -186270, 29680
493144, -411, -982, -156, -83860, -191100, 33600
493164, -405, -966, -158, -82320, -193060, 39200
493184, -404, -962, -162, -81130, -192010, 43960
493204, -403, -966, -164, -77980, -188510, 44660
493224, -405, -974, -164, -55090, -184660, 42210
493244, -407, -988, -165, -47180, -177030, 40740
493264, -408, -995, -168, -40810, -166390, 39270
493284, -404, -990, -165, -34440, -154210, 38360
493304, -399, -983, -168, -30450, -138670, 38080
493324, -394, -966, -169, -24430, -121940, 37030
493344, -372, -930, -161, -13860, -105420, 33320
493364, -367, -917, -161, -5670, -85330, 28210
493384, -367, -918, -161, -280, -62090, 24430
493404, -364, -914, -161, 8890, -40880, 23520
493424, -368, -922, -160, 16940, -18340, 24500
493444, -376, -937, -166, 19880, 8470, 24500
493464, -371, -924, -160, 27720, 32200, 21770
493484, -372, -919, -160, 34370, 57120, 16170
493504, -371, -913, -162, 34440, 85540, 10290
493524, -366, -894, -157, 42000, 106260, 7700
493544, -368, -895, -158, 49630, 124390, 6860
493564, -378, -903, -157, 51940, 144480, 5180
493584, -385, -913, -155, 59010, 158830, 2030
493604, -396, -933, -157, 65240, 172130, -5390
493624, -403, -949, -155, 68810, 185290, -15260
493644, -408, -958, -152, 76930, 190890, -21630
493664, -410, -957, -151, 83160, 193760, -25480
493684, -409, -956, -149, 83790, 197610, -28700
493704, -410, -952, -147, 85120, 197610, -30380
493724, -411, -956, -146, 87850, 193410, -31780
493744, -417, -964, -147, 88410, 189280, -36120
493764, -416, -971, -143, 92330, 181230, -41860
493784, -420, -985, -141, 98770, 168350, -45150
493804, -424, -998, -141, 98420, 156520, -44660
493824, -417, -981, -136, 91070, 146860, -42980
493844, -406, -960, -133, 84350, 134960, -41720
493864, -400, -944, -132, 78820, 120890, -41160
493884, -395, -935, -127, 75670, 103390, -40110
493904, -394, -939, -126, 74270, 83160, -37870
493924, -398, -949, -124, 67270, 66010, -37030
493944, -398, -953, -125, 54600, 51800, -37100
493964, -397, -949, -123, 42280, 35560, -34650
493984, -391, -937, -123, 30800, 17710, -31500
494004, -379, -906, -118, 20090, -630, -29120
494024, -366, -880, -116, 9590, -19250, -26320
494044, -362, -864, -117, -5320, -34300, -23240
494064, -362, -868, -119, -21350, -47530, -21140
494084, -373, -889, -123, -30870, -63980, -18130
494104, -383, -915, -125, -35980, -82670, -14140
494124, -391, -938, -129, -53270, -111090, -6090
494144, -392, -935, -131, -64610, -121380, -1050
494164, -390, -930, -136, -75320, -130270, 3990
494184, -390, -926, -137, -82040, -139510, 8050
494204, -387, -923, -139, -82460, -150500, 12040
494224, -387, -922, -142, -81340, -160230, 16170
494244, -388, -924, -144, -83020, -165970, 20440
494264, -391, -934, -148, -84560, -169540, 25270
494284, -398, -951, -150, -82880, -173110, 29890
494304, -406, -966, -155, -78470, -176050, 33530
494324, -408, -981, -156, -72800, -177590, 36050
494344, -410, -985, -160, -66990, -176820, 36960
494364, -405, -978, -159, -62300, -173320, 37240
494384, -401, -970, -160, -59570, -166530, 38080
494404, -396, -962, -164, -54740, -159110, 39340
494424, -394, -958, -164, -45360, -152180, 39200
494444, -394, -965, -162, -34790, -143710, 37590
494464, -397, -975, -163, -26180, -132090, 35210
494484, -394, -974, -162, -20440, -117110, 32620
494504, -384, -958, -162, -16240, -99330, 31150
494524, -375, -929, -158, -11130, -81550, 32200
494544, -367, -908, -159, -6440, -61880, 32060
494564, -361, -897, -158, 420, -41440, 27860
494584, -357, -896, -155, 10500, -21630, 21350
494604, -368, -919, -156, 20650, -2240, 17990
494624, -380, -944, -160, 26110, 19250, 18690
494644, -384, -950, -160, 30100, 41440, 19110
494664, -383, -939, -157, 33110, 64540, 16800
494684, -373, -909, -155, 35070, 86870, 13230
494704, -365, -886, -152, 39620, 106120, 7700
494724, -364, -881, -151, 46130, 123200, 490
494744, -372, -898, -150, 51030, 139020, -4550
494764, -390, -929, -152, 57470, 149520, -4340
494784, -412, -968, -155, 63630, 157640, -4760
494804, -413, -974, -153, 68320, 166460, -12530
494824, -412, -975, -149, 74830, 171640, -22540
494844, -408, -964, -149, 77560, 175070, -28280
494864, -400, -943, -144, 75180, 178010, -30030
494884, -393, -926, -141, 73710, 178150, -30590
494904, -398, -931, -141, 74900, 174300, -30590
494924, -406, -948, -140, 78330, 166810, -30870
494944, -412, -966, -138, 84980, 155400, -33320
494964, -414, -982, -137, 90510, 143640, -38570
494984, -417, -993, -136, 87150, 136010, -44030
495004, -414, -987, -134, 70700, 116620, -39200
495024, -406, -960, -131, 64960, 102060, -34720
495044, -393, -929, -129, 61460, 86030, -33810
495064, -382, -911, -124, 60130, 67900, -34020
495084, -381, -910, -122, 54600, 51730, -34650
495104, -389, -928, -124, 42840, 39340, -35980
495124, -394, -948, -125, 31640, 25410, -35140
495144, -401, -968, -126, 22540, 8190, -29820
495164, -403, -967, -126, 12390, -9450, -23100
495184, -390, -934, -122, 1400, -25410, -20090
495204, -373, -893, -120, -11270, -38500, -22050
495224, -359, -860, -117, -24850, -50190, -24010
495244, -353, -850, -118, -35980, -63770, -21140
495264, -364, -869, -123, -42910, -79730, -14630
495284, -377, -900, -126, -45290, -97160, -7700
495304, -391, -933, -130, -46970, -112700, -3080
495324, -400, -957, -134, -55160, -121870, -770
495344, -401, -955, -137, -69090, -125720, 1120
495364, -389, -932, -139, -78260, -131390, 4340
495384, -383, -918, -141, -80080, -139720, 8610
495404, -384, -921, -142, -78190, -149030, 14980
495424, -390, -932, -145, -74060, -157990, 22190
495444, -395, -945, -147, -71960, -162470, 26320
495464, -401, -964, -152, -74480, -160300, 26320
495484, -407, -975, -155, -73920, -158830, 27300
495504, -407, -980, -157, -67130, -160300, 30310
495524, -403, -978, -158, -59640, -160300, 33390
495544, -402, -975, -158, -54670, -156310, 35700
495564, -402, -970, -159, -50890, -149870, 37450
495584, -399, -971, -160, -47600, -140560, 36960
495604, -397, -969, -161, -42700, -130060, 34580
495624, -390, -960, -160, -33670, -120610, 31710
495644, -385, -951, -158, -23240, -110600, 28770
495664, -379, -943, -158, -16240, -96880, 28070
495684, -373, -929, -158, -12320, -80920, 31780
495704, -374, -920, -158, -8400, -63910, 35770
495724, -371, -914, -160, -6230, -42350, 32760
495744, -365, -910, -156, 1890, -22470, 24010
495764, -364, -911, -153, 17290, -7490, 16590
495784, -373, -932, -157, 27160, 9310, 15470
495804, -381, -941, -158, 24990, 33740, 17990
495824, -384, -937, -157, 28070, 53410, 21560
495844, -389, -936, -158, 34300, 70700, 21280
495864, -380, -921, -154, 37520, 90580, 14420
495884, -371, -906, -148, 45500, 106400, 3990
495904, -377, -910, -150, 52290, 134890, -3920
495924, -383, -916, -149, 53760, 145040, -1190
495944, -395, -933, -151, 59780, 150920, -2100
495964, -407, -955, -153, 64680, 157150, -10220
495984, -405, -963, -148, 73430, 158690, -19880
496004, -400, -952, -144, 80150, 157570, -25340
496024, -398, -948, -143, 75040, 161630, -28980
496044, -394, -935, -141, 68740, 163380, -28840
496064, -392, -926, -139, 69650, 157150, -24640
496084, -401, -938, -140, 70910, 149380, -22890
496104, -405, -950, -140, 77070, 138250, -27440
496124, -405, -955, -132, 86870, 123060, -33390
496144, -410, -975, -133, 82740, 115500, -39760
496164, -412, -984, -134, 68040, 112350, -42070
496184, -406, -969, -132, 60130, 101150, -36820
496204, -400, -948, -130, 56140, 85190, -29400
496224, -390, -924, -127, 51870, 69650, -26670
496244, -379, -903, -121, 51940, 51590, -27650
496264, -378, -907, -119, 47530, 36610, -30800
496284, -383, -921, -124, 31990, 28630, -33950
496304, -388, -934, -125, 17500, 18270, -32340
496324, -392, -940, -125, 11900, 70, -25340
496344, -396, -949, -128, 8330, -19600, -19250
496364, -390, -939, -124, 1960, -36190, -17570
496384, -383, -920, -123, -9660, -47810, -19880
496404, -374, -899, -124, -27790, -54250, -22960
496424, -368, -884, -124, -42350, -63000, -22470
496444, -367, -881, -124, -45640, -79520, -15890
496464, -374, -890, -126, -44660, -98070, -7280
496484, -385, -918, -131, -48230, -111300, -1190
496504, -394, -945, -137, -56140, -118370, 350
496524, -403, -970, -142, -64960, -122570, -420
496544, -404, -971, -144, -72660, -126630, 1190
496564, -391, -945, -143, -74270, -134120, 6370
496584, -378, -911, -139, -71050, -142800, 13300
496604, -373, -897, -141, -70980, -146930, 19390
496624, -380, -912, -146, -73780, -146720, 23590
496644, -395, -950, -153, -73780, -145810, 25620
496664, -409, -987, -156, -67480, -146440, 25620
496684, -411, -998, -157, -56770, -148610, 26110
496704, -401, -979, -154, -49140, -147840, 27930
496724, -388, -951, -155, -48230, -141120, 29960
496744, -383, -934, -156, -50750, -130410, 32480
496764, -382, -934, -160, -50260, -120050, 34720
496784, -384, -940, -157, -41790, -112560, 33670
496804, -378, -938, -155, -14700, -97370, 25620
496824, -378, -943, -156, -11340, -81970, 26530
496844, -377, -940, -158, -11970, -63420, 30380
496864, -385, -951, -160, -8750, -45640, 31500
496884, -387, -955, -162, -1190, -28910, 28140
496904, -382, -947, -162, 7000, -11340, 22400
496924, -368, -918, -156, 16030, 5670, 17360
496944, -360, -901, -153, 20720, 24920, 15190
496964, -360, -896, -153, 23310, 43960, 16660
496984, -374, -915, -155, 26530, 61600, 17990
497004, -386, -942, -159, 32340, 77700, 15540
497024, -393, -954, -155, 43260, 89740, 10010
497044, -390, -949, -153, 51660, 101990, 3010
497064, -381, -925, -149, 52500, 117180, -2940
497084, -374, -902, -146, 48860, 132300, -5880
497104, -375, -897, -149, 46690, 143920, -7140
497124, -379, -907, -148, 54600, 147210, -8120
497144, -396, -942, -146, 70140, 142380, -7630
497164, -413, -975, -147, 79030, 139930, -9870
497184, -417, -993, -146, 76090, 145040, -17920
497204, -410, -981, -142, 70000, 149590, -26250
497224, -399, -954, -140, 64960, 149660, -28980
497244, -390, -928, -139, 61530, 145250, -25620
497264, -382, -904, -132, 65940, 133630, -20440
497284, -385, -909, -129, 72800, 119980, -18480
497304, -391, -924, -130, 71050, 112070, -22540
497324, -392, -934, -131, 65170, 106470, -30730
497344, -397, -950, -130, 62160, 97090, -37030
497364, -403, -976, -130, 59150, 84490, -36190
497384, -412, -986, -130, 53830, 69720, -27160
497404, -408, -971, -129, 47110, 54600, -18200
497424, -394, -938, -127, 37660, 42980, -18200
497444, -381, -916, -124, 25690, 34230, -25620
497464, -378, -912, -122, 18620, 21350, -31220
497484, -383, -925, -123, 16870, 3150, -30240
497504, -387, -930, -124, 11550, -13440, -24850
497524, -387, -930, -124, 0, -25760, -18620
497544, -389, -927, -128, -12040, -37100, -14420
497564, -385, -923, -128, -20650, -49210, -15190
497584, -377, -912, -126, -26880, -60760, -20440
497604, -371, -901, -127, -33040, -71890, -23030
497624, -371, -896, -127, -39900, -83440, -18200
497644, -373, -897, -129, -47460, -94010, -9310
497664, -379, -909, -133, -53970, -103040, -2310
497684, -385, -921, -137, -57890, -111160, 1050
497704, -390, -940, -140, -62090, -122920, -840
497724, -393, -951, -141, -62300, -127750, 70
497744, -392, -953, -142, -63420, -132020, 7210
497764, -391, -942, -146, -67130, -133560, 16940
497784, -384, -921, -147, -68320, -133420, 22120
497804, -377, -907, -146, -65100, -132230, 20300
497824, -376, -917, -147, -59780, -130550, 16940
497844, -384, -939, -149, -53410, -129150, 17850
497864, -394, -964, -153, -47600, -126980, 23170
497884, -406, -987, -158, -43190, -122220, 27720
497904, -407, -991, -159, -38430, -115850, 28770
497924, -400, -981, -157, -35770, -106260, 26600
497944, -392, -964, -158, -35700, -93590, 23590
497964, -381, -938, -156, -31570, -82460, 21980
497984, -373, -921, -152, -22680, -74060, 23240
498004, -371, -919, -152, -14350, -64610, 26670
498024, -372, -923, -154, -7840, -52640, 29750
498044, -380, -943, -155, -1540, -38360, 29190
498064, -390, -965, -160, 1890, -20370, 24640
498084, -385, -957, -157, 7420, -3640, 19670
498104, -375, -938, -155, 15820, 10290, 17290
498124, -370, -922, -154, 18480, 27860, 17080
498144, -369, -913, -153, 19600, 45220, 19180
498164, -370, -904, -151, 24920, 59010, 20860
498184, -376, -911, -153, 32060, 71820, 18550
498204, -376, -911, -151, 38360, 85610, 11620
498224, -375, -912, -149, 46830, 95970, 5460
498244, -381, -923, -148, 50190, 107170, 1680
498264, -392, -941, -150, 49980, 118650, -490
498284, -400, -959, -150, 53900, 124460, -420
498304, -404, -961, -149, 56490, 128870, -770
498324, -391, -933, -143, 57680, 132930, -4340
498344, -378, -904, -137, 61390, 133980, -11060
498364, -376, -898, -135, 63420, 134330, -17290
498384, -388, -920, -138, 62790, 133560, -19390
498404, -398, -948, -137, 64190, 128730, -18690
498424, -409, -973, -139, 67340, 121310, -18340
498444, -414, -983, -138, 66220, 115920, -20720
498464, -405, -964, -134, 63980, 109410, -23800
498484, -391, -935, -131, 61880, 100800, -26250
498504, -381, -921, -129, 54740, 94640, -29190
498524, -381, -916, -126, 47880, 86520, -28910
498544, -388, -926, -130, 46830, 72100, -24010
498564, -390, -929, -127, 45360, 57610, -21280
498584, -383, -926, -123, 41160, 46060, -24640
498604, -389, -936, -123, 27440, 23030, -28770
498624, -396, -951, -126, 16450, 11830, -25550
498644, -396, -953, -128, 9520, -1820, -22470
498664, -393, -947, -127, 3640, -15960, -20580
498684, -389, -932, -127, -4900, -28140, -19740
498704, -382, -914, -125, -13370, -39410, -21280
498724, -375, -905, -125, -21070, -49840, -24010
498744, -373, -901, -124, -28420, -60620, -22890
498764, -374, -903, -128, -35280, -72030, -16660
498784, -378, -910, -130, -40670, -82950, -10430
498804, -379, -908, -131, -42910, -93450, -8050
498824, -382, -924, -134, -46130, -100800, -9030
498844, -390, -941, -138, -51240, -105840, -9240
498864, -395, -955, -141, -55230, -111020, -5600
498884, -396, -962, -144, -58870, -115360, 280
498904, -393, -952, -142, -60480, -119420, 6790
498924, -388, -936, -144, -59920, -123200, 12880
498944, -390, -937, -145, -60900, -122990, 14630
498964, -388, -944, -148, -60620, -120890, 13020
498984, -390, -951, -148, -56070, -120400, 13090
499004, -390, -953, -151, -51520, -119420, 16730
499024, -387, -945, -151, -48230, -116200, 21420
499044, -380, -933, -149, -43820, -111580, 24500
499064, -381, -936, -152, -40880, -104230, 25620
499084, -381, -935, -153, -39270, -94220, 24500
499104, -380, -938, -154, -33320, -85470, 22120
499124, -382, -945, -155, -24710, -77280, 19670
499144, -380, -947, -151, -16800, -68460, 19950
499164, -383, -946, -153, -11620, -58100, 23450
499184, -379, -942, -156, -10850, -43610, 25200
499204, -373, -928, -153, -9310, -27860, 22890
499224, -369, -916, -153, -3500, -13930, 19950
499244, -364, -904, -151, 4410, -1680, 18830
499264, -359, -896, -150, 10500, 12390, 17500
499284, -365, -904, -150, 16730, 25830, 17500
499304, -376, -918, -152, 21350, 39620, 18060
499324, -381, -927, -154, 24150, 54390, 16870
499344, -378, -932, -150, 29400, 67830, 11760
499364, -384, -938, -152, 36890, 78820, 6510
499384, -392, -952, -152, 41930, 88760, 4620
499404, -395, -957, -150, 45150, 97510, 5110
499424, -394, -950, -149, 46200, 106470, 5180
499444, -389, -934, -148, 45010, 115360, 3430
499464, -384, -921, -145, 47460, 119700, 1260
499484, -380, -914, -141, 52990, 120470, -2870
499504, -386, -925, -140, 58520, 120890, -10500
499524, -400, -956, -143, 58240, 118860, -9590
499544, -414, -989, -145, 59080, 114520, -8890
499564, -416, -994, -143, 58590, 111020, -12180
499584, -405, -971, -137, 56560, 106750, -15260
499604, -382, -920, -133, 52290, 101640, -15610
499624, -364, -877, -128, 46480, 96530, -14630
499644, -353, -854, -126, 42490, 90020, -13020
499664, -357, -861, -124, 42770, 79450, -9380
499684, -373, -891, -128, 45430, 66500, -6230
499704, -385, -922, -126, 46830, 54460, -5880
499724, -401, -963, -132, 39690, 48160, -9100
499744, -401, -966, -129, 30520, 41370, -11270
499764, -390, -943, -129, 24640, 31500, -11410
499784, -377, -914, -124, 14350, 23730, -10430
499804, -373, -899, -125, 5600, 14000, -7280
499824, -379, -905, -127, 5250, -2100, -3220
499844, -391, -939, -127, 5670, -16800, -4690
499864, -401, -965, -131, 0, -25900, -10570
499884, -402, -973, -131, -7770, -34090, -14420
499904, -397, -958, -130, -16100, -42700, -13160
499924, -390, -939, -132, -26530, -49910, -9170
499944, -383, -923, -131, -33250, -58870, -4900
499964, -382, -918, -129, -33600, -70420, -3080
499984, -389, -936, -136, -36750, -77840, -5320
500004, -393, -951, -137, -42840, -81760, -9030
500024, -391, -948, -136, -44730, -87780, -9590
500044, -386, -936, -139, -48230, -91980, -6930
500064, -379, -919, -139, -55230, -93030, -1680
500084, -372, -897, -136, -55860, -97160, 3640
500104, -370, -895, -139, -53410, -100380, 4060
500124, -374, -908, -141, -55510, -97860, -70
500144, -377, -921, -141, -54740, -96460, -2310
500164, -387, -946, -145, -49490, -98000, 350
500184, -401, -970, -149, -48300, -95830, 4550
500204, -397, -968, -149, -47040, -92610, 7840
500224, -384, -940, -144, -42000, -90440, 7840
500244, -374, -916, -148, -44520, -81130, 4620
500264, -366, -899, -146, -50470, -68670, 2520
500284, -368, -911, -147, -43120, -65030, 3430
500304, -390, -963, -152, -30380, -64260, 5110
500324, -412, -1011, -153, -23450, -58450, 7420
500344, -419, -1026, -155, -18060, -52010, 11130
500364, -409, -1006, -156, -17500, -41510, 10640
500384, -386, -956, -154, -23310, -12950, 1190
500404, -363, -895, -147, -14280, -8050, 2520
500424, -352, -872, -143, -8680, 0, 4690
500444, -354, -874, -144, -2590, 8120, 5040
500464, -364, -897, -144, 6440, 15120, 3220
500484, -380, -939, -149, 11830, 23730, 1820
500504, -400, -976, -152, 15680, 33320, -700
500524, -392, -965, -148, 22050, 40250, -3010
500544, -376, -929, -143, 22400, 49630, -2450
500564, -364, -892, -143, 15750, 61390, 770
500584, -350, -853, -141, 16800, 68040, 1260
500604, -345, -838, -137, 26110, 70000, -1050
500624, -358, -867, -140, 35210, 71120, -2870
500644, -375, -909, -142, 46200, 68880, -2520
500664, -614, -1000, 104, 54670, 68180, -3920
500684, -797, -819, 14, 47250, 18620, -15260
500704, 244, -1915, 175, -25550, -164150, -55300
500724, -358, -298, -731, -108220, -213780, -133700
500744, -417, -1150, -8, -151130, -105560, -283920
500764, 141, -1144, -232, -107450, -37730, -182210
500784, 161, -1039, -382, -94920, -96600, -209160
500804, 79, -1184, -138, -114450, -31010, -205030
500824, 185, -1053, -191, -151340, -73640, -207690
500844, 199, -937, -334, -195930, -91140, -245000
500864, 336, -827, -504, -225680, -110110, -280560
500884, -51, -784, -250, -208320, -156170, -294910
500904, 444, -663, -748, -168910, -175700, -292250
500924, 297, -636, -677, -162610, -233940, -333970
500944, 91, -540, -690, -112560, -222460, -251370
500964, 13, -511, -864, -82180, -240730, -161840
500984, 4, -538, -904, -102130, -197120, -151410
501004, 204, -504, -1062, -84840, -152950, -124950
501024, 202, -481, -1039, -66290, -109200, -97650
501044, 271, -448, -1156, -67900, 24920, -50330
501064, 415, -399, -1103, -42910, 211890, 38640
501084, 81, -708, -628, 32830, 382760, 162960
501104, 28, -911, -288, 127400, 487620, 255080
501124, 376, -750, -536, 154070, 395920, 206220
501144, 533, -755, -710, 120680, 241290, 98350
501164, 254, -726, -640, 56280, 196770, 66080
501184, 104, -820, -285, -48650, 194320, 40810
501204, 696, -970, 81, 15470, 193480, 59080
501224, 887, -1126, -134, 70350, 173110, 28490
501244, 551, -630, -726, 45640, 90160, -10220
501264, 125, -648, 239, 16240, 116200, -35280
501284, 765, -667, -317, 12600, 95760, 12950
501304, 810, -938, -534, -17080, -57610, 1050
501324, 592, -786, -276, -2730, 17220, 28000
501344, 416, -763, -159, 22610, 99820, 30240
501364, 652, -723, -296, 15260, 70280, 28560
501384, 468, -812, -44, 13090, 67410, 16380
501404, 649, -825, -85, 7140, 68600, 5250
501424, 546, -834, -154, -4480, 75040, -6440
501444, 915, -836, -14, -7140, 117740, -19110
501464, 824, -602, 362, 7490, 190750, -27720
501484, 291, -724, -896, -20440, 192990, -12460
501504, 557, -858, 582, 75530, 214270, -44310
501524, 629, -855, 482, 54390, 116970, -9730
501544, 681, -923, 367, -29820, 45290, 20020
501564, 624, -873, -190, -88340, -33740, 42770
501584, 101, -791, -511, -102270, 3850, 51100
501604, 926, -697, -519, -27440, 3290, 18480
501624, 554, -909, 689, 49980, 79940, -5390
501644, 767, -550, 620, 95760, 179270, -14840
501664, 633, -494, -100, 4130, 60410, -23730
